n	Session	accelerometer.seconds.Unix	accelerometer.accx.Average	accelerometer.accy.Average	accelerometer.accz.Average	accelerometer.accx.Average-All	events.type	events.description
1	15993	1497027451	0.11439732142857	0.21216517857143	9.5574776785714	9.5605300976752		
2	15993	1497027452	0.19921875	0.36495535714286	9.5218829719388	9.5369454035639		
3	15993	1497027453	0.044096327319588	0.60401900773196	9.5195715206186	9.5395213496887		
4	15993	1497027454	1.7939755154639	0.78737113402062	9.780887564433	10.221359595176		
5	15993	1497027455	0.13863118489583	0.32328287760417	9.486328125	9.5024532446076		
6	15993	1497027456	0.043585526315789	0.17487664473684	9.4521381578947	9.4538704355263		
7	15993	1497027457	0.043244949494949	0.17266414141414	9.4764046717172	9.4780937060434		
8	15993	1497027458	0.045121173469388	0.1734693877551	9.4787547831633	9.4804621633132		
9	15993	1497027459	0.043996710526316	0.17351973684211	9.4812911184211	9.4829959092338		
10	15993	1497027460	0.044298537234043	0.17411901595745	9.4790974069149	9.4808137870053		
11	15993	1497027461	0.042277018229167	0.1734619140625	9.4794108072917	9.4811070514718		
12	15993	1497027462	0.042416779891304	0.17505944293478	9.4782608695652	9.4799878301509		
13	15993	1497027463	0.043009020618557	0.17521746134021	9.4759584407216	9.4776908013969		
14	15993	1497027464	0.042683919270833	0.17390950520833	9.4783121744792	9.4800171911542		
15	15993	1497027465	0.043136760752688	0.17334509408602	9.4766045026882	9.4783015881677		
16	15993	1497027466	0.043294270833333	0.17692057291667	9.4778645833333	9.4796273876749		
17	15993	1497027467	0.041876680107527	0.17477318548387	9.4730342741935	9.4747539116134		
18	15993	1497027468	0.043174342105263	0.17388980263158	9.4794819078947	9.4811896781697		
19	15993	1497027469	0.04296875	0.17290296052632	9.4776726973684	9.479360606789		
20	15993	1497027470	0.043467420212766	0.17249833776596	9.4779338430851	9.4796142741798		
21	15993	1497027471	0.041196842783505	0.1742912371134	9.4769652061856	9.4786699655628		
22	15993	1497027472	0.043259640957447	0.17229055851064	9.472032912234	9.4737106118873		
23	15993	1497027473	0.042404961340206	0.1754993556701	9.4792606314433	9.4809932230776		
24	15993	1497027474	0.042636303191489	0.17374501329787	9.4832945478723	9.4849948372773		
25	15993	1497027475	0.042729591836735	0.17446588010204	9.4809869260204	9.4827013562457		
26	15993	1497027476	0.044819078947368	0.17495888157895	9.4781661184211	9.4799019350361		
27	15993	1497027477	0.041529605263158	0.17310855263158	9.4800164473684	9.4817024144968		
28	15993	1497027478	0.042926747311828	0.1739751344086	9.4769405241935	9.4786478409869		
29	15993	1497027479	0.03993517287234	0.17395279255319	9.4776429521277	9.4793348720502		
30	15993	1497027480	0.043585526315789	0.17393092105263	9.4776315789474	9.4793421386538		
31	15993	1497027481	0.044072690217391	0.17399796195652	9.4740998641304	9.4758135051646		
32	15993	1497027482	0.042506720430108	0.17204301075269	9.475596438172	9.4772687439372		
33	15993	1497027483	0.040707236842105	0.17331414473684	9.4714226973684	9.4731095936334		
34	15993	1497027484	0.04363952020202	0.17503156565657	9.4741556186869	9.4758849671494		
35	15993	1497027485	0.039986559139785	0.17355510752688	9.4724882392473	9.4741774043872		
36	15993	1497027486	0.041735197368421	0.17475328947368	9.4706414473684	9.4723573275226		
37	15993	1497027487	0.041525135869565	0.17590862771739	9.4718070652174	9.4735427318659		
38	15993	1497027488	0.041597406914894	0.17332945478723	9.4765209441489	9.4782091633386		
39	15993	1497027489	0.041529605263158	0.17331414473684	9.4739309210526	9.4756200884204		
40	15993	1497027490	0.043925382653061	0.17422672193878	9.4705038265306	9.4722214816743		
41	15993	1497027491	0.0430908203125	0.17350260416667	9.4697265625	9.4714284634941		
42	15993	1497027492	0.041463216145833	0.17435709635417	9.4757080078125	9.4774206035345		
43	15993	1497027493	0.038272938829787	0.1768201462766	9.4724900265957	9.4742289985374		
44	15993	1497027494	0.0406494140625	0.17366536458333	9.4723714192708	9.4740637646675		
45	15993	1497027495	0.039225260416667	0.17472330729167	9.4761555989583	9.4778580432039		
46	15993	1497027496	0.041597406914894	0.17499168882979	9.473944481383	9.4756648005501		
47	15993	1497027497	0.040138711734694	0.1734693877551	9.4723772321429	9.4740625927144		
48	15993	1497027498	0.044821198453608	0.17731153350515	9.470199742268	9.472111428085		
49	15993	1497027499	0.039632161458333	0.17228190104167	9.4718831380208	9.4735447542054		
50	15993	1497027500	0.038780605670103	0.17046552835052	9.4747100515464	9.4763374419614		
51	15993	1497027501	0.036005434782609	0.17251188858696	9.4759680706522	9.4776174742918		
52	15993	1497027502	0.036580403645833	0.17513020833333	9.4715983072917	9.4733017362154		
53	15993	1497027503	0.057955994897959	0.19260204081633	9.4752072704082	9.4779224245811		
54	15993	1497027504	0.042061237373737	0.17660984848485	9.4722616792929	9.4740143448969		
55	15993	1497027505	0.043294270833333	0.177734375	9.4757486979167	9.4775287073334		
56	15993	1497027506	0.041597406914894	0.17906416223404	9.473279587766	9.4750759928934		
57	15993	1497027507	0.041805186170213	0.17603058510638	9.4771027260638	9.4788415199546		
58	15993	1497027508	0.042887369791667	0.17814127604167	9.4756673177083	9.4774538248493		
59	15993	1497027509	0.041118421052632	0.17639802631579	9.47421875	9.4759609566066		
60	15993	1497027510	0.042636303191489	0.17810837765957	9.473279587766	9.4750641415889		
61	15993	1497027511	0.039988724226804	0.17630476804124	9.4773679123711	9.4791038150087		
62	15993	1497027512	0.042277018229167	0.17427571614583	9.4730224609375	9.4747363538448		
63	15993	1497027513	0.042807667525773	0.17646585051546	9.474105992268	9.4758586869818		
64	15993	1497027514	0.041599548969072	0.17860019329897	9.4700789304124	9.4718991251087		
65	15993	1497027515	0.043860394021739	0.17527173913043	9.4731657608696	9.4749052915703		
66	15993	1497027516	0.04260631443299	0.17803640463918	9.4687097293814	9.4704935482687		
67	15993	1497027517	0.041463216145833	0.17769368489583	9.4718017578125	9.4735729345158		
68	15993	1497027518	0.043168048469388	0.17617984693878	9.4723772321429	9.4741296122436		
69	15993	1497027519	0.042928890306122	0.17486447704082	9.4730149872449	9.4747396156677		
70	15993	1497027520	0.044124681122449	0.1770169005102	9.4756457270408	9.4774155678699		
71	15993	1497027521	0.04296875	0.17701480263158	9.4727796052632	9.4745438766335		
72	15993	1497027522	0.040406586021505	0.17603326612903	9.4750504032258	9.4767859975243		
73	15993	1497027523	0.043136760752688	0.17922547043011	9.470220094086	9.4720269535265		
74	15993	1497027524	0.042073567708333	0.17631022135417	9.4722086588542	9.4739559488944		
75	15993	1497027525	0.044090757978723	0.17810837765957	9.4717835771277	9.4735741515952		
76	15993	1497027526	0.040974069148936	0.17706948138298	9.4736535904255	9.4754092605119		
77	15993	1497027527	0.044714095744681	0.17781748670213	9.4748171542553	9.4766041164001		
78	15993	1497027528	0.042203608247423	0.17566043814433	9.4781733247423	9.4799092695466		
79	15993	1497027529	0.044034090909091	0.17870107323232	9.4740372474747	9.4758392121469		
80	15993	1497027530	0.042844082446809	0.17785904255319	9.4753573803191	9.4771375069875		
81	15993	1497027531	0.043996710526316	0.17569901315789	9.4730674342105	9.4748120109154		
82	15993	1497027532	0.043585526315789	0.17750822368421	9.4791529605263	9.4809302749832		
83	15993	1497027533	0.044714095744681	0.17806682180851	9.4768949468085	9.4786877630871		
84	15993	1497027534	0.042086693548387	0.17775537634409	9.4775705645161	9.4793431714952		
85	15993	1497027535	0.0430908203125	0.1761474609375	9.4779866536458	9.4797325483065		
86	15993	1497027536	0.043185763888889	0.17491319444444	9.4759114583333	9.4776363570396		
87	15993	1497027537	0.045223904639175	0.17711018041237	9.4745489690722	9.4763249677305		
88	15993	1497027538	0.044821198453608	0.17686855670103	9.4744684278351	9.4762411711636		
89	15993	1497027539	0.042073567708333	0.177978515625	9.4734700520833	9.475246375351		
90	15993	1497027540	0.043294270833333	0.17814127604167	9.4742431640625	9.4760302485309		
91	15993	1497027541	0.043346774193548	0.17334509408602	9.4774445564516	9.4791404136597		
92	15993	1497027542	0.044619845360825	0.17529800257732	9.4738643685567	9.4756034898312		
93	15993	1497027543	0.042668269230769	0.17745535714286	9.4750600961538	9.4768307648093		
94	15993	1497027544	0.041599548969072	0.1772712628866	9.4739851804124	9.4757484601991		
95	15993	1497027545	0.042763157894737	0.17491776315789	9.4729440789474	9.4746713469231		
96	15993	1497027546	0.042653093434343	0.17739898989899	9.4736821338384	9.4754512439738		
97	15993	1497027547	0.041463216145833	0.1767578125	9.4772135416667	9.4789657120372		
98	15993	1497027548	0.04296875	0.17639802631579	9.4717516447368	9.4735045895917		
99	15993	1497027549	0.043136760752688	0.17481518817204	9.4719002016129	9.4736233388613		
100	15993	1497027550	0.041529605263158	0.17495888157895	9.4740131578947	9.4757312499674		
101	15993	1497027551	0.044140625	0.177109375	9.4711328125	9.4729065957847		
102	15993	1497027552	0.041666666666667	0.173828125	9.4787760416667	9.4804748766464		
103	15993	1497027553	0.043259640957447	0.17536569148936	9.4760222739362	9.4777585526965		
104	15993	1497027554	0.04312818877551	0.17526307397959	9.472337372449	9.4740691691953		
105	15993	1497027555	0.042258522727273	0.17739898989899	9.4725378787879	9.4743043547594		
106	15993	1497027556	0.042404961340206	0.17626449742268	9.4729784149485	9.4747264289576		
107	15993	1497027557	0.04133450255102	0.17757493622449	9.4748883928571	9.4766571839142		
108	15993	1497027558	0.043136760752688	0.17624327956989	9.4774865591398	9.4792353540321		
109	15993	1497027559	0.041181848404255	0.17661236702128	9.471368018617	9.4731178853457		
110	15993	1497027560	0.041800902061856	0.17767396907216	9.4716092139175	9.4733806417761		
111	15993	1497027561	0.042012965425532	0.17603058510638	9.4712849069149	9.4730259961075		
112	15993	1497027562	0.041529605263158	0.17409539473684	9.4729440789474	9.4746501241546		
113	15993	1497027563	0.03918331185567	0.17602287371134	9.4717300257732	9.4734592069996		
114	15993	1497027564	0.040794136597938	0.17723099226804	9.4721730025773	9.473931866284		
115	15993	1497027565	0.04321037371134	0.17666720360825	9.4795425257732	9.4813009317556		
116	15993	1497027566	0.044015786082474	0.17751288659794	9.4812741623711	9.4830515245398		
117	15993	1497027567	0.045545212765957	0.17536569148936	9.4882396941489	9.4899821274408		
118	15993	1497027568	0.045435855263158	0.17619243421053	9.4860608552632	9.4878180885465		
119	15993	1497027569	0.042928890306122	0.17625956632653	9.4861686862245	9.4879171410848		
120	15993	1497027570	0.045125325520833	0.1781005859375	9.4798990885417	9.4816921537442		
121	15993	1497027571	0.041056315104167	0.17610677083333	9.4830322265625	9.4847695399514		
122	15993	1497027572	0.044821198453608	0.17791559278351	9.4740657216495	9.4758565779438		
123	15993	1497027573	0.042763157894737	0.17557565789474	9.4800986842105	9.4818339499653		
124	15993	1497027574	0.043701171875	0.17753092447917	9.4740397135417	9.4758160486201		
125	15993	1497027575	0.040995489690722	0.17686855670103	9.476200064433	9.4779534016632		
126	15993	1497027576	0.042729591836735	0.17685746173469	9.4773596938776	9.4791197317718		
127	15993	1497027577	0.041595123626374	0.17801339285714	9.4776785714286	9.4794536239928		
128	15993	1497027578	0.043327487244898	0.17697704081633	9.4736926020408	9.4754597745575		
129	15993	1497027579	0.041036626344086	0.17561323924731	9.4753024193548	9.4770326371539		
130	15993	1497027580	0.0430908203125	0.17647298177083	9.4772542317708	9.479008746092		
131	15993	1497027581	0.042002255154639	0.17590206185567	9.4718105670103	9.4735501235423		
132	15993	1497027582	0.040995489690722	0.1754993556701	9.4747503221649	9.4764774496478		
133	15993	1497027583	0.040888247282609	0.17709748641304	9.4760105298913	9.4777667705876		
134	15993	1497027584	0.042203608247423	0.17626449742268	9.4737838273196	9.4755281172985		
135	15993	1497027585	0.040852864583333	0.17631022135417	9.4719645182292	9.4737075929489		
136	15993	1497027586	0.042557565789474	0.17512335526316	9.4731907894737	9.4749184447758		
137	15993	1497027587	0.040707236842105	0.17639802631579	9.4691611842105	9.4709026626328		
138	15993	1497027588	0.041800902061856	0.17771423969072	9.4705219072165	9.472295586338		
139	15993	1497027589	0.041118421052632	0.17615131578947	9.4664884868421	9.4682311521322		
140	15993	1497027590	0.041074810606061	0.17503156565657	9.4692234848485	9.4709425243711		
141	15993	1497027591	0.0416015625	0.177734375	9.470625	9.4723988086777		
142	15993	1497027592	0.04248046875	0.17451985677083	9.46484375	9.4665617597447		
143	15993	1497027593	0.041246639784946	0.17725134408602	9.4696740591398	9.4714370012547		
144	15993	1497027594	0.041599548969072	0.17384826030928	9.4654075386598	9.4671111118259		
145	15993	1497027595	0.041015625	0.17547743055556	9.4713107638889	9.4730386640237		
146	15993	1497027596	0.041232638888889	0.17682291666667	9.4721354166667	9.4738901789476		
147	15993	1497027597	0.043526785714286	0.17681760204082	9.4737324617347	9.475497222653		
148	15993	1497027598	0.042002255154639	0.17570070876289	9.4714884020619	9.473223478414		
149	15993	1497027599	0.043613079896907	0.17666720360825	9.4717300257732	9.4734920358108		
150	15993	1497027600	0.041940789473684	0.17532894736842	9.4677631578947	9.4694931910218		
151	15993	1497027601	0.042636303191489	0.17615525265957	9.4667553191489	9.4685049665301		
152	15993	1497027602	0.043009020618557	0.17751288659794	9.4756765463918	9.4774505041281		
153	15993	1497027603	0.045024671052632	0.17512335526316	9.4738486842105	9.4755873805265		
154	15993	1497027604	0.043009020618557	0.17586179123711	9.4788981958763	9.4806418247361		
155	15993	1497027605	0.045866935483871	0.17767137096774	9.4754284274194	9.4772187661143		
156	15993	1497027606	0.043726084183673	0.17789381377551	9.4735730229592	9.4753598131597		
157	15993	1497027607	0.045918367346939	0.17625956632653	9.4713010204082	9.4730660679446		
158	15993	1497027608	0.043726084183673	0.17725605867347	9.4737723214286	9.4755460074308		
159	15993	1497027609	0.046029317010309	0.17602287371134	9.4737838273196	9.4755464684163		
160	15993	1497027610	0.045125325520833	0.17667643229167	9.4778645833333	9.4796325373348		
161	15993	1497027611	0.047697368421053	0.17557565789474	9.4782072368421	9.4799687419987		
162	15993	1497027612	0.045020517676768	0.17534722222222	9.478851010101	9.4806110418794		
163	15993	1497027613	0.048787434895833	0.17582194010417	9.4770914713542	9.4788730862749		
164	15993	1497027614	0.045827963917526	0.17509664948454	9.4813144329897	9.4830907839774		
165	15993	1497027615	0.045641447368421	0.17857730263158	9.4800986842105	9.4819068599728		
166	15993	1497027616	0.047403971354167	0.17692057291667	9.4829508463542	9.4847448410131		
167	15993	1497027617	0.048380533854167	0.17814127604167	9.4842122395833	9.4860234910595		
168	15993	1497027618	0.048314144736842	0.17923519736842	9.4912417763158	9.4930702553171		
169	15993	1497027619	0.049493018617021	0.1772772606383	9.4963846409574	9.4981830717333		
170	15993	1497027620	0.050947473404255	0.17935505319149	9.4937666223404	9.4956089991685		
171	15993	1497027621	0.049558080808081	0.17834595959596	9.4917929292929	9.4936108487436		
172	15993	1497027622	0.047159830729167	0.17753092447917	9.49072265625	9.4925130585333		
173	15993	1497027623	0.048110650510204	0.17841198979592	9.4856106505102	9.487423521667		
174	15993	1497027624	0.047585227272727	0.17854324494949	9.4891493055556	9.4909609640968		
175	15993	1497027625	0.050164473684211	0.17878289473684	9.4908717105263	9.4927007659979		
176	15993	1497027626	0.046346028645833	0.177001953125	9.4898681640625	9.4916470713258		
177	15993	1497027627	0.046142578125	0.17793782552083	9.487060546875	9.4888563443851		
178	15993	1497027628	0.046706989247312	0.17981350806452	9.4823588709677	9.4841909140711		
179	15993	1497027629	0.048244201030928	0.17888208762887	9.4837306701031	9.4855545870362		
180	15993	1497027630	0.045125325520833	0.17549641927083	9.4828694661458	9.4846149621805		
181	15993	1497027631	0.043976814516129	0.17834341397849	9.4827788978495	9.4845726537052		
182	15993	1497027632	0.046258223684211	0.17779605263158	9.4800575657895	9.4818503369509		
183	15993	1497027633	0.04736328125	0.17708333333333	9.4793294270833	9.4811153357581		
184	15993	1497027634	0.045641447368421	0.17824835526316	9.4844161184211	9.4862128165957		
185	15993	1497027635	0.043882978723404	0.17619680851064	9.4762716090426	9.4780251861013		
186	15993	1497027636	0.045827963917526	0.1784793814433	9.4746697809278	9.4764743307989		
187	15993	1497027637	0.042807667525773	0.17884181701031	9.4780927835052	9.4798887674502		
188	15993	1497027638	0.045446908602151	0.17733534946237	9.4772765456989	9.4790567122103		
189	15993	1497027639	0.044186827956989	0.17708333333333	9.4840809811828	9.4858503000631		
190	15993	1497027640	0.046376329787234	0.17765126329787	9.4839594414894	9.4857498857199		
191	15993	1497027641	0.042277018229167	0.1767578125	9.484619140625	9.4863734900312		
192	15993	1497027642	0.043526785714286	0.17681760204082	9.4812260841837	9.4829881714209		
193	15993	1497027643	0.0430908203125	0.17574055989583	9.4809163411458	9.4826564927337		
194	15993	1497027644	0.042258522727273	0.1779908459596	9.4824810606061	9.4842575387224		
195	15993	1497027645	0.044202302631579	0.17528782894737	9.4814967105263	9.4832343978857		
196	15993	1497027646	0.041529605263158	0.17557565789474	9.4806743421053	9.4824058754955		
197	15993	1497027647	0.043136760752688	0.17830141129032	9.4852990591398	9.4870863769687		
198	15993	1497027648	0.044497282608696	0.17378566576087	9.4789826766304	9.4806944650602		
199	15993	1497027649	0.043346774193548	0.17565524193548	9.4805107526882	9.4822502753667		
200	15993	1497027650	0.042220744680851	0.17785904255319	9.4801363031915	9.4819122282911		
201	15993	1497027651	0.042653093434343	0.17657039141414	9.4762863005051	9.4780429428177		
202	15993	1497027652	0.0418701171875	0.17549641927083	9.4767659505208	9.4784950352535		
203	15993	1497027653	0.040935905612245	0.17765465561224	9.4775589923469	9.4793240590481		
204	15993	1497027654	0.041529605263158	0.17491776315789	9.4763980263158	9.4781161043107		
205	15993	1497027655	0.042926747311828	0.17712533602151	9.473874327957	9.4756417284761		
206	15993	1497027656	0.043379934210526	0.17816611842105	9.47421875	9.4760076908042		
207	15993	1497027657	0.044186827956989	0.17762936827957	9.4788726478495	9.4806566016518		
208	15993	1497027658	0.04194972826087	0.17735224184783	9.4777088994565	9.4794736110642		
209	15993	1497027659	0.043791118421053	0.17746710526316	9.4791940789474	9.4809721679719		
210	15993	1497027660	0.042763157894737	0.17487664473684	9.4798930921053	9.4816148849565		
211	15993	1497027661	0.042277018229167	0.17488606770833	9.4840494791667	9.4857698801689		
212	15993	1497027662	0.043860394021739	0.17629076086957	9.4799167798913	9.4816709492421		
213	15993	1497027663	0.0431640625	0.175	9.481953125	9.4836794357767		
214	15993	1497027664	0.041733099489796	0.17825255102041	9.476881377551	9.4786612371066		
215	15993	1497027665	0.042351973684211	0.17615131578947	9.48046875	9.4822150136912		
216	15993	1497027666	0.04296875	0.17680921052632	9.4787006578947	9.4804606847676		
217	15993	1497027667	0.042203608247423	0.17843911082474	9.4794217139175	9.4812092865395		
218	15993	1497027668	0.04363952020202	0.17538667929293	9.4817708333333	9.4835089478098		
219	15993	1497027669	0.043009020618557	0.17690882731959	9.4791398195876	9.4809014199177		
220	15993	1497027670	0.042683919270833	0.178955078125	9.4798990885417	9.4817002509179		
221	15993	1497027671	0.043814432989691	0.17743234536082	9.478012242268	9.4797861000041		
222	15993	1497027672	0.043009020618557	0.17787532216495	9.4821198453608	9.4839022210542		
223	15993	1497027673	0.043435801630435	0.1771824048913	9.4774966032609	9.4792638494278		
224	15993	1497027674	0.043613079896907	0.17489529639175	9.4816768685567	9.4834048373037		
225	15993	1497027675	0.041876680107527	0.17712533602151	9.4860971102151	9.4878571964448		
226	15993	1497027676	0.045217803030303	0.17680713383838	9.4818497474747	9.4836200131488		
227	15993	1497027677	0.043585526315789	0.17800164473684	9.47890625	9.4806902265593		
228	15993	1497027678	0.0443115234375	0.1771240234375	9.4802652994792	9.4820377090219		
229	15993	1497027679	0.042807667525773	0.1767074742268	9.4793411726804	9.4810973571193		
230	15993	1497027680	0.043294270833333	0.178955078125	9.4790852864583	9.4808857518316		
231	15993	1497027681	0.044217139175258	0.17590206185567	9.4806298324742	9.4823808305499		
232	15993	1497027682	0.041597406914894	0.17665392287234	9.4786402925532	9.4803934679928		
233	15993	1497027683	0.040995489690722	0.17686855670103	9.4788579252577	9.4806091090445		
234	15993	1497027684	0.044090757978723	0.17756815159574	9.4758144946809	9.4776060006156		
235	15993	1497027685	0.041666666666667	0.17762936827957	9.4832409274194	9.4850112572226		
236	15993	1497027686	0.043675199468085	0.17706948138298	9.4805103058511	9.4822797104042		
237	15993	1497027687	0.042729591836735	0.17522321428571	9.479830994898	9.4815603240352		
238	15993	1497027688	0.044323979591837	0.17641900510204	9.4798708545918	9.4816298438141		
239	15993	1497027689	0.043051861702128	0.17785904255319	9.4792636303191	9.4810418932645		
240	15993	1497027690	0.042844082446809	0.17540724734043	9.4744431515957	9.4761763883701		
241	15993	1497027691	0.044015786082474	0.17690882731959	9.4746295103093	9.476397947139		
242	15993	1497027692	0.042683919270833	0.17533365885417	9.4759521484375	9.4776836037697		
243	15993	1497027693	0.041056315104167	0.17610677083333	9.4742431640625	9.4759812954814		
244	15993	1497027694	0.042807667525773	0.1754993556701	9.4787371134021	9.4804728892894		
245	15993	1497027695	0.042146381578947	0.17738486842105	9.4752467105263	9.4770147124453		
246	15993	1497027696	0.043442234848485	0.17641256313131	9.4734059343434	9.4751626262261		
247	15993	1497027697	0.043585526315789	0.17759046052632	9.4776315789474	9.4794092828238		
248	15993	1497027698	0.043379934210526	0.17557565789474	9.4761101973684	9.4778502218216		
249	15993	1497027699	0.04296875	0.17853618421053	9.4763157894737	9.4781091443253		
250	15993	1497027700	0.045230263157895	0.17615131578947	9.4760279605263	9.4777872764827		
251	15993	1497027701	0.04321037371134	0.17590206185567	9.4757570876289	9.477500099211		
252	15993	1497027702	0.043814432989691	0.17626449742268	9.4745086984536	9.4762641138872		
253	15993	1497027703	0.044090757978723	0.1807263962766	9.4767287234043	9.4785664006102		
254	15993	1497027704	0.041324013157895	0.17742598684211	9.4725740131579	9.4743375253556		
255	15993	1497027705	0.041181848404255	0.17536569148936	9.4717420212766	9.4734688384524		
256	15993	1497027706	0.043701171875	0.17744954427083	9.4711100260417	9.4728882485828		
257	15993	1497027707	0.04375	0.174609375	9.4719140625	9.4736377793652		
258	15993	1497027708	0.042729591836735	0.17665816326531	9.4717793367347	9.4735353394761		
259	15993	1497027709	0.043411726804124	0.1760631443299	9.4719716494845	9.4737241709549		
260	15993	1497027710	0.040445963541667	0.17447916666667	9.4724934895833	9.4742016249597		
261	15993	1497027711	0.043814432989691	0.17529800257732	9.4735422036082	9.4752782250465		
262	15993	1497027712	0.044428661616162	0.17609690656566	9.4766414141414	9.4783961019428		
263	15993	1497027713	0.042763157894737	0.17738486842105	9.4742598684211	9.4760288606096		
264	15993	1497027714	0.03993517287234	0.17702792553191	9.4770611702128	9.4788126163181		
265	15993	1497027715	0.044613486842105	0.1765625	9.4748355263158	9.4765993023483		
266	15993	1497027716	0.041863952020202	0.17562342171717	9.4767597853535	9.478494402848		
267	15993	1497027717	0.043585526315789	0.17594572368421	9.4782894736842	9.480038949671		
268	15993	1497027718	0.04296875	0.17537006578947	9.4745888157895	9.4763216753044		
269	15993	1497027719	0.041735197368421	0.17919407894737	9.4766858552632	9.4784856272004		
270	15993	1497027720	0.041118421052632	0.17619243421053	9.4768914473684	9.4786312272389		
271	15993	1497027721	0.043556787634409	0.17439516129032	9.4754284274194	9.4771465045666		
272	15993	1497027722	0.042530293367347	0.17761479591837	9.4744100765306	9.4761827740083		
273	15993	1497027723	0.043585526315789	0.17590460526316	9.4743832236842	9.4761299031704		
274	15993	1497027724	0.044323979591837	0.17606026785714	9.4753268494898	9.4770815240624		
275	15993	1497027725	0.043411726804124	0.1767074742268	9.4760389819588	9.4777990937511		
276	15993	1497027726	0.038726478494624	0.17708333333333	9.475344422043	9.4770906501166		
277	15993	1497027727	0.042807667525773	0.17791559278351	9.4735422036082	9.4753246768424		
278	15993	1497027728	0.041196842783505	0.17626449742268	9.4751932989691	9.4769431208891		
279	15993	1497027729	0.045166015625	0.17399088541667	9.47509765625	9.4768366343653		
280	15993	1497027730	0.040537308673469	0.17645886479592	9.4746890943878	9.4764327120029		
281	15993	1497027731	0.043294270833333	0.1746826171875	9.4762776692708	9.4780021373073		
282	15993	1497027732	0.041056315104167	0.17574055989583	9.4746907552083	9.4764210607473		
283	15993	1497027733	0.043312156593407	0.1770260989011	9.4748025412088	9.4765677021436		
284	15993	1497027734	0.042557565789474	0.17553453947368	9.4790296052632	9.4807631456348		
285	15993	1497027735	0.04296875	0.17475328947368	9.4694078947368	9.4711337625995		
286	15993	1497027736	0.044718424479167	0.17525227864583	9.4746907552083	9.4764328704195		
287	15993	1497027737	0.042146381578947	0.17676809210526	9.4727384868421	9.4744943505996		
288	15993	1497027738	0.0439453125	0.177890625	9.471015625	9.4728012612656		
289	15993	1497027739	0.042100694444444	0.17552083333333	9.4686631944444	9.4703978619017		
290	15993	1497027740	0.043379934210526	0.17800164473684	9.4755756578947	9.4773592291489		
291	15993	1497027741	0.041196842783505	0.17529800257732	9.4735824742268	9.4753069385066		
292	15993	1497027742	0.043051861702128	0.17478390957447	9.469414893617	9.4711397097565		
293	15993	1497027743	0.041456653225806	0.17645329301075	9.4758064516129	9.4775527159177		
294	15993	1497027744	0.042729591836735	0.17586096938776	9.475247130102	9.4769871845795		
295	15993	1497027745	0.041735197368421	0.17738486842105	9.4727384868421	9.4745072520255		
296	15993	1497027746	0.04301120923913	0.17607846467391	9.4721042798913	9.4738526743899		
297	15993	1497027747	0.041940789473684	0.1765625	9.4756578947368	9.4774096193636		
298	15993	1497027748	0.043836805555556	0.17664930555556	9.4757378472222	9.4774965532652		
299	15993	1497027749	0.043726084183673	0.17566167091837	9.4786750637755	9.4804170275072		
300	15993	1497027750	0.044819078947368	0.17660361842105	9.4794819078947	9.4812452200841		
301	15993	1497027751	0.043359375	0.1780859375	9.4756640625	9.4774522675337		
302	15993	1497027752	0.043009020618557	0.17602287371134	9.4736227448454	9.4753683995478		
303	15993	1497027753	0.043726084183673	0.17566167091837	9.4766820790816	9.478423905473		
304	15993	1497027754	0.044108072916667	0.17513020833333	9.4734293619792	9.47516192233		
305	15993	1497027755	0.044506316489362	0.17561502659574	9.4777260638298	9.4794716320291		
306	15993	1497027756	0.04363952020202	0.17483428030303	9.4744712752525	9.4762012978139		
307	15993	1497027757	0.042807667525773	0.17541881443299	9.481918492268	9.4836551215564		
308	15993	1497027758	0.043726084183673	0.17494419642857	9.4748485331633	9.4765900647776		
309	15993	1497027759	2.0531640625	2.324140625	8.587734375	9.7726936929642		
310	15993	1497027760	0.21823182397959	5.2238121811224	7.4558753188776	9.1420081923981		
311	15993	1497027761	0.086213699494949	5.4495344065657	7.329742739899	9.1346988938557		
312	15993	1497027762	0.19627899484536	5.3896182345361	7.3743153994845	9.1362887698315		
313	15993	1497027763	0.23601973684211	5.3217927631579	7.4255345394737	9.1389611813847		
314	15993	1497027764	2.1116240530303	2.6598011363636	8.3254024621212	9.3553841680186		
315	15993	1497027765	0.93390315594059	0.29289139851485	9.3056543935644	9.4134163134743		
316	15993	1497027766	0.046286962365591	0.16053427419355	9.4832409274194	9.4847267958122		
317	15993	1497027767	0.044407894736842	0.16056743421053	9.4809210526316	9.482399538577		
318	15993	1497027768	0.047036082474227	0.15616945876289	9.4815157860825	9.4829354564412		
319	15993	1497027769	0.046875	0.15830592105263	9.4825246710526	9.4839762320392		
320	15993	1497027770	0.04502688172043	0.15780409946237	9.4829889112903	9.4844225311292		
321	15993	1497027771	0.047819368131868	0.1574948489011	9.4806404532967	9.4820816424981		
322	15993	1497027772	0.046549479166667	0.1602783203125	9.4791666666667	9.4806500315588		
323	15993	1497027773	0.047623005319149	0.15733045212766	9.4768949468085	9.4783324738023		
324	15993	1497027774	0.046584109042553	0.1577460106383	9.4763962765957	9.4778359343717		
325	15993	1497027775	0.0467529296875	0.15763346354167	9.47607421875	9.4775137752482		
326	15993	1497027776	0.044202302631579	0.15748355263158	9.4709292763158	9.4723583019626		
327	15993	1497027777	0.045337433510638	0.16003158244681	9.4750249335106	9.476497249604		
328	15993	1497027778	0.042404961340206	0.15979381443299	9.4716897551546	9.4731458180824		
329	15993	1497027779	0.045866935483871	0.16053427419355	9.4744623655914	9.4759492144284		
330	15993	1497027780	0.046102335164835	0.15985576923077	9.4838598901099	9.485331786317		
331	15993	1497027781	0.047566731770833	0.15966796875	9.4886067708333	9.4900829494707		
332	15993	1497027782	0.04523689516129	0.16032426075269	9.487315188172	9.4887932196908		
333	15993	1497027783	0.045735677083333	0.15804036458333	9.4812418619792	9.4826824973507		
334	15993	1497027784	0.043497721354167	0.16048177083333	9.4801839192708	9.4816559638595		
335	15993	1497027785	0.044821198453608	0.15576675257732	9.4742670747423	9.4756676478797		
336	15993	1497027786	0.049136513157895	0.15851151315789	9.47578125	9.4772507857816		
337	15993	1497027787	0.043174342105263	0.16036184210526	9.4746299342105	9.4760998293559		
338	15993	1497027788	0.043882978723404	0.16003158244681	9.4716589095745	9.4731266038892		
339	15993	1497027789	0.041520365168539	0.15892731741573	9.4741046348315	9.4755407038215		
340	15993	1497027790	0.041940789473684	0.15748355263158	9.4712171052632	9.4726330587991		
341	15993	1497027791	0.044186827956989	0.15717405913978	9.4716061827957	9.4730295880151		
342	15993	1497027792	0.042404961340206	0.15838434278351	9.4732603092784	9.4746927753598		
343	15993	1497027793	0.055016447368421	0.18421052631579	9.4740542763158	9.4770021046112		
344	15993	1497027794	0.039986559139785	0.15570396505376	9.4695060483871	9.470890664337		
345	15993	1497027795	0.041380494505495	0.15792410714286	9.4703811813187	9.4718007147884		
346	15993	1497027796	0.040138711734694	0.15613042091837	9.467115752551	9.4685009318161		
347	15993	1497027797	0.039679276315789	0.15953947368421	9.4642680921053	9.4657083859931		
348	15993	1497027798	0.039884868421053	0.15686677631579	9.4674753289474	9.468872171404		
349	15993	1497027799	0.042131696428571	0.15473533163265	9.4682716836735	9.4696435503317		
350	15993	1497027800	0.041666666666667	0.15458170572917	9.4667154947917	9.4680834194204		
351	15993	1497027801	0.040445963541667	0.15804036458333	9.4658610026042	9.4672786232236		
352	15993	1497027802	0.038780605670103	0.15697487113402	9.4657699742268	9.4671642880401		
353	15993	1497027803	0.043492268041237	0.15778028350515	9.4628302190722	9.4642778035572		
354	15993	1497027804	0.039540816326531	0.15911989795918	9.4694674744898	9.4709011564656		
355	15993	1497027805	0.039713541666667	0.15711805555556	9.4696180555556	9.4710175817052		
356	15993	1497027806	0.040230347938144	0.15749838917526	9.4663740335052	9.467803076635		
357	15993	1497027807	0.039817116477273	0.15678267045455	9.4648881392045	9.4662837321796		
358	15993	1497027808	0.040190077319588	0.15576675257732	9.4674613402062	9.46883807073		
359	15993	1497027809	0.039776545698925	0.15696404569892	9.466061827957	9.467462278346		
360	15993	1497027810	0.040307348901099	0.15534855769231	9.4693938873626	9.4707660689821		
361	15993	1497027811	0.038614908854167	0.15620930989583	9.4634602864583	9.4648410928494		
362	15993	1497027812	0.041232638888889	0.154296875	9.4656684027778	9.467029395277		
363	15993	1497027813	0.038651315789474	0.15419407894737	9.4676398026316	9.4689883886332		
364	15993	1497027814	0.039019574175824	0.15599244505495	9.4617530906593	9.4631330025415		
365	15993	1497027815	0.040888247282609	0.15552819293478	9.4634850543478	9.4648655782695		
366	15993	1497027816	0.041666666666667	0.15510574494949	9.4598721590909	9.4612480360837		
367	15993	1497027817	0.039835611979167	0.15702311197917	9.4605712890625	9.461970973311		
368	15993	1497027818	0.040296052631579	0.15707236842105	9.4637746710526	9.4651775744216		
369	15993	1497027819	0.038688497340426	0.15587599734043	9.46484375	9.4662188126208		
370	15993	1497027820	0.03918331185567	0.15556539948454	9.4601723582474	9.4615437242721		
371	15993	1497027821	0.037828947368421	0.15727796052632	9.4653371710526	9.4667328104443		
372	15993	1497027822	0.041735197368421	0.15707236842105	9.4573601973684	9.4587705136916		
373	15993	1497027823	0.039632161458333	0.15519205729167	9.4626057942708	9.4639755800443		
374	15993	1497027824	0.040296052631579	0.15542763157895	9.4608963815789	9.4622706021338		
375	15993	1497027825	0.036750637755102	0.15513392857143	9.4617745535714	9.4631287928687		
376	15993	1497027826	0.037801106770833	0.15519205729167	9.4630940755208	9.4644541548936		
377	15993	1497027827	0.038651315789474	0.15625	9.4587993421053	9.4601873721314		
378	15993	1497027828	0.038765285326087	0.15616508152174	9.4574133831522	9.4587992639354		
379	15993	1497027829	0.039473684210526	0.15666118421053	9.4581003289474	9.4594913013446		
380	15993	1497027830	0.038845486111111	0.15538194444444	9.4599826388889	9.4613523339837		
381	15993	1497027831	0.041100543478261	0.15574048913043	9.4592391304348	9.4606241949345		
382	15993	1497027832	0.039402173913043	0.1572265625	9.4608525815217	9.4622534372216		
383	15993	1497027833	0.038856907894737	0.15481085526316	9.4584292763158	9.4597918388059		
384	15993	1497027834	0.038480718085106	0.15442154255319	9.4623919547872	9.4637436316155		
385	15993	1497027835	0.0390625	0.15686677631579	9.4599095394737	9.4613035634092		
386	15993	1497027836	0.038942920918367	0.15433673469388	9.4577885841837	9.4591404630393		
387	15993	1497027837	0.036626344086022	0.15591397849462	9.4577452956989	9.4591145081566		
388	15993	1497027838	0.036229395604396	0.15427541208791	9.4554429945055	9.4567857745853		
389	15993	1497027839	0.037441821808511	0.15442154255319	9.4502576462766	9.4516068707522		
390	15993	1497027840	0.037801106770833	0.15641276041667	9.4533284505208	9.4547091524427		
391	15993	1497027841	0.03515625	0.15559895833333	9.4557291666667	9.4570907016786		
392	15993	1497027842	0.037348533163265	0.15632971938776	9.4554767219388	9.4568551082002		
393	15993	1497027843	0.036206317204301	0.15738407258065	9.4532930107527	9.4546854625955		
394	15993	1497027844	0.035996303763441	0.15486391129032	9.4534610215054	9.4548111384583		
395	15993	1497027845	0.033305921052632	0.15563322368421	9.4518503289474	9.4532032765389		
396	15993	1497027846	0.036339962121212	0.15510574494949	9.4499289772727	9.4512873487976		
397	15993	1497027847	0.035571808510638	0.15629155585106	9.4534990026596	9.4548708884567		
398	15993	1497027848	0.034526209677419	0.15507392473118	9.4514868951613	9.4528358173673		
399	15993	1497027849	0.034342447916667	0.15315755208333	9.451171875	9.4524894332999		
400	15993	1497027850	0.03515625	0.15616945876289	9.4540512242268	9.4554193212161		
401	15993	1497027851	0.035800137362637	0.15470467032967	9.451665521978	9.4530106091289		
402	15993	1497027852	0.035580842391304	0.15489130434783	9.4514690896739	9.4528162187453		
403	15993	1497027853	0.0373046875	0.155859375	9.44734375	9.4487154079903		
404	15993	1497027854	0.036610704787234	0.15359042553191	9.448553856383	9.4498830532992		
405	15993	1497027855	0.036836357526882	0.15570396505376	9.4522849462366	9.4536504601348		
406	15993	1497027856	0.037190755208333	0.15234375	9.4512532552083	9.4525639506754		
407	15993	1497027857	0.034106182795699	0.15465389784946	9.451906922043	9.4532477099628		
408	15993	1497027858	0.036610704787234	0.15836934840426	9.4515043218085	9.4529155589899		
409	15993	1497027859	0.035754145408163	0.15573182397959	9.4491788903061	9.4505432246054		
410	15993	1497027860	0.03536626344086	0.15675403225806	9.4474126344086	9.4487901279177		
411	15993	1497027861	0.033494015957447	0.15172041223404	9.4525847739362	9.4538729133921		
412	15993	1497027862	0.034757653061224	0.15632971938776	9.4513313137755	9.4527004295245		
413	15993	1497027863	0.036565721649485	0.15455863402062	9.4529639175258	9.4543123243106		
414	15993	1497027864	0.035773026315789	0.15563322368421	9.4529605263158	9.4543234100123		
415	15993	1497027865	0.036364368556701	0.15194104381443	9.4549371778351	9.4562390670287		
416	15993	1497027866	0.035567434210526	0.15275493421053	9.4545230263158	9.4558371361519		
417	15993	1497027867	0.034149484536082	0.15536404639175	9.4490576675258	9.4504088648928		
418	15993	1497027868	0.036152742346939	0.15513392857143	9.4514110331633	9.452766400049		
419	15993	1497027869	0.033948131443299	0.15576675257732	9.4501047036082	9.4514635261621		
420	15993	1497027870	0.034359056122449	0.15613042091837	9.4497767857143	9.4511429389868		
421	15993	1497027871	0.033717105263158	0.15542763157895	9.4505345394737	9.4518889670061		
422	15993	1497027872	0.03473622311828	0.15423387096774	9.454091061828	9.455424540784		
423	15993	1497027873	0.034138997395833	0.15559895833333	9.4510091145833	9.4523629530184		
424	15993	1497027874	0.034564393939394	0.15372474747475	9.4529671717172	9.4542928142861		
425	15993	1497027875	0.034128289473684	0.15707236842105	9.4489720394737	9.4503545399521		
426	15993	1497027876	0.0345458984375	0.15437825520833	9.4541829427083	9.4555194279972		
427	15993	1497027877	0.033266129032258	0.15570396505376	9.4527469758065	9.4541007673927		
428	15993	1497027878	0.036595394736842	0.15481085526316	9.4517680921053	9.4531190081248		
429	15993	1497027879	0.035364029255319	0.15504488031915	9.4533327792553	9.4546837870326		
430	15993	1497027880	0.035368546195652	0.15425441576087	9.4538892663043	9.4552249005256		
431	15993	1497027881	0.035554846938776	0.15334024234694	9.4524473852041	9.4537708469545		
432	15993	1497027882	0.03515625	0.15451388888889	9.4522964015152	9.4536398434318		
433	15993	1497027883	0.0345458984375	0.15559895833333	9.453125	9.4544800422607		
434	15993	1497027884	0.034325132978723	0.15255152925532	9.4526263297872	9.4539326975444		
435	15993	1497027885	0.034138997395833	0.153564453125	9.4509684244792	9.452288568033		
436	15993	1497027886	0.033775252525253	0.15333017676768	9.4470091540404	9.4483241914808		
437	15993	1497027887	0.034950657894737	0.15296052631579	9.453125	9.4544411522525		
438	15993	1497027888	0.033142719072165	0.15455863402062	9.4487757731959	9.4501110827566		
439	15993	1497027889	0.033775252525253	0.15392203282828	9.4517440025253	9.4530666029836		
440	15993	1497027890	0.03494623655914	0.15570396505376	9.4520749327957	9.4534347396832		
441	15993	1497027891	0.035563151041667	0.1541748046875	9.450439453125	9.451773991196		
442	15993	1497027892	0.034958964646465	0.15490845959596	9.4509548611111	9.4522982897857		
443	15993	1497027893	0.033577967171717	0.15431660353535	9.4519807449495	9.4533115779316		
444	15993	1497027894	0.03515625	0.15462932180851	9.4487616356383	9.4501051527403		
445	15993	1497027895	0.03515625	0.15478515625	9.44775390625	9.449099974515		
446	15993	1497027896	0.033922697368421	0.15398848684211	9.4477796052632	9.4491077537542		
447	15993	1497027897	0.034552190721649	0.15556539948454	9.4455943943299	9.4469515910878		
448	15993	1497027898	0.03515625	0.15340523097826	9.448879076087	9.4502009007157		
449	15993	1497027899	0.034993489583333	0.15511067708333	9.444091796875	9.4454629415284		
450	15993	1497027900	0.034526209677419	0.15486391129032	9.4463205645161	9.447668387372		
451	15993	1497027901	0.03515625	0.15088929521277	9.4490109707447	9.4502934204882		
452	15993	1497027902	0.034333881578947	0.15439967105263	9.4447368421053	9.4460729953826		
453	15993	1497027903	0.034138997395833	0.15397135416667	9.4488932291667	9.450221650665		
454	15993	1497027904	0.036727241847826	0.1537449048913	9.4486243206522	9.4499757248082		
455	15993	1497027905	0.03515625	0.15513392857143	9.4490470467033	9.4503982646193		
456	15993	1497027906	0.035357603092784	0.15516269329897	9.4459568298969	9.4473095652542		
457	15993	1497027907	0.034745065789474	0.15460526315789	9.4492598684211	9.4506016045848		
458	15993	1497027908	0.034539473684211	0.15439967105263	9.4461759868421	9.4475137718271		
459	15993	1497027909	0.034564393939394	0.15451388888889	9.4463383838384	9.4476770024478		
460	15993	1497027910	0.03515625	0.15519205729167	9.4514567057292	9.4528071904811		
461	15993	1497027911	0.034532912234043	0.15192819148936	9.4460605053191	9.4473570174894		
462	15993	1497027912	0.035571808510638	0.15462932180851	9.4479720744681	9.4493153876657		
463	15993	1497027913	0.036184210526316	0.15357730263158	9.4473273026316	9.448657625207		
464	15993	1497027914	0.0357666015625	0.15234375	9.4486897786458	9.4499980670775		
465	15993	1497027915	0.034952799479167	0.153564453125	9.4497477213542	9.4510723678217		
466	15993	1497027916	0.035953443877551	0.15433673469388	9.4450733418367	9.4464147589218		
467	15993	1497027917	0.036800986842105	0.15398848684211	9.4461348684211	9.4474750484011		
468	15993	1497027918	2.4943970959596	0.69771938131313	9.3110795454545	10.292970177924		
469	15993	1497027919	1.3770328443878	7.1250797193878	4.5719866071429	8.8074131239868		
470	15993	1497027920	0.33625637755102	7.2370057397959	5.433912627551	9.0846083990327		
471	15993	1497027921	0.20320391414141	7.1944839015152	5.5022490530303	9.0642447282929		
472	15993	1497027922	0.22518150252525	7.2219065656566	5.4986190025253	9.0821398511285		
473	15993	1497027923	0.48624840561224	7.3739636479592	5.2500797193878	9.0705975199523		
474	15993	1497027924	0.27000473484848	7.4576231060606	5.1427162247475	9.0669439967487		
475	15993	1497027925	0.15641276041667	7.46142578125	5.1447347005208	9.0650908275437		
476	15993	1497027926	0.10519255050505	7.4385653409091	5.2020991161616	9.0783925769291		
477	15993	1497027927	0.15471117424242	7.4405381944444	5.1983901515152	9.0797509291725		
478	15993	1497027928	0.1424560546875	7.4569498697917	5.1840006510417	9.0832879142282		
479	15993	1497027929	0.13928345959596	7.4624368686869	5.1716382575758	9.0806376503426		
480	15993	1497027930	0.14469233247423	7.4683472938144	5.169418492268	9.0843000175234		
481	15993	1497027931	0.15703914141414	7.4703282828283	5.1629971590909	9.082455140404		
482	15993	1497027932	0.16732442010309	7.4729381443299	5.1555653994845	9.0804853366543		
483	15993	1497027933	0.17525227864583	7.47607421875	5.1442464192708	9.076886555915		
484	15993	1497027934	0.17316365979381	7.4681459407216	5.1553237757732	9.0766047752698		
485	15993	1497027935	0.1646148989899	7.4675662878788	5.1546717171717	9.0756056207876		
486	15993	1497027936	0.22628348214286	7.3583785076531	5.3228236607143	9.0861279402699		
487	15993	1497027937	0.25769292091837	7.355787627551	5.3041294642857	9.0736057003491		
488	15993	1497027938	0.30890940656566	7.3641493055556	5.3063841540404	9.0829780317515		
489	15993	1497027939	0.373046875	7.2894921875	5.4289453125	9.1003842453662		
490	15993	1497027940	0.15505420918367	7.3301179846939	5.3576211734694	9.0820612968128		
491	15993	1497027941	0.092952806122449	7.3930165816327	5.2741948341837	9.0824334385516		
492	15993	1497027942	0.2297265625	7.413359375	5.05734375	9.007810897408		
493	15993	1497027943	0.32378029336735	6.9974888392857	5.8454241071429	9.1694214086642		
494	15993	1497027944	0.53009406887755	6.8286033163265	5.9485012755102	9.1202526827444		
495	15993	1497027945	0.24481823979592	6.6409040178571	6.2419882015306	9.1281594451521		
496	15993	1497027946	0.28503787878788	6.6715988005051	6.237334280303	9.1423208904763		
497	15993	1497027947	0.37862723214286	7.0343191964286	5.6738679846939	9.0693633729442		
498	15993	1497027948	0.27671243686869	6.9727746212121	5.8332149621212	9.0988830746815		
499	15993	1497027949	0.64772727272727	6.7501183712121	6.0746922348485	9.1102059863885		
500	15993	1497027950	0.728203125	6.644375	6.193984375	9.1138522532205		
501	15993	1497027951	0.73493303571429	6.6300223214286	6.2002152423469	9.1080624423551		
502	15993	1497027952	0.73362531565657	6.6691524621212	6.1556186868687	9.1080070990022		
503	15993	1497027953	0.8474609375	6.092265625	6.724296875	9.1470422147371		
504	15993	1497027954	1.56359375	5.8384765625	6.8443359375	9.1358974476662		
505	15993	1497027955	1.6581044823232	5.8067392676768	6.8547190656566	9.135801021219		
506	15993	1497027956	1.6450836489899	5.7640861742424	6.9045138888889	9.1440516538851		
507	15993	1497027957	1.6727825126263	5.7785274621212	6.8920454545455	9.1490501955799		
508	15993	1497027958	1.7016501913265	5.7993861607143	6.8494100765306	9.1355038008391		
509	15993	1497027959	1.6914859693878	5.7894610969388	6.8668287627551	9.1399611996923		
510	15993	1497027960	1.7397265625	5.783671875	6.8660546875	9.14528476236		
511	15993	1497027961	1.7839481314433	5.7741221005155	6.8585695876289	9.1417791036317		
512	15993	1497027962	1.7747001262626	5.7672032828283	6.8581518308081	9.1357436016285		
513	15993	1497027963	1.8179450757576	5.653685290404	6.9572679924242	9.1502917488681		
514	15993	1497027964	1.9196654040404	5.4914378156566	7.0820707070707	9.1697601020465		
515	15993	1497027965	1.9050016108247	5.4425338273196	7.121456185567	9.164268710232		
516	15993	1497027966	1.9230707908163	5.4095982142857	7.1377551020408	9.160598866962		
517	15993	1497027967	1.9099195075758	5.4499684343434	7.1208570075758	9.1699572871879		
518	15993	1497027968	1.9310411509901	5.5915068069307	6.9716893564356	9.1464439127674		
519	15993	1497027969	2.040078125	5.740703125	6.83015625	9.1532519476456		
520	15993	1497027970	1.9760546875	5.8533984375	6.7419140625	9.1457437246336		
521	15993	1497027971	1.9015066964286	6.0420121173469	6.5808753188776	9.1343940124897		
522	15993	1497027972	1.9246875	6.021875	6.5934375	9.1351653341751		
523	15993	1497027973	1.9542297979798	5.9763652146465	6.630523989899	9.1384198170199		
524	15993	1497027974	1.954921875	5.9548828125	6.6546875	9.142091907269		
525	15993	1497027975	1.9196484375	5.9726953125	6.6370703125	9.1334150830054		
526	15993	1497027976	1.9225596005155	5.9634342783505	6.6562902706186	9.1417543706868		
527	15993	1497027977	1.90328125	5.9421484375	6.673125	9.1362708818207		
528	15993	1497027978	1.9050164473684	5.9336759868421	6.6839638157895	9.1388937340661		
529	15993	1497027979	1.9123658459596	5.9360006313131	6.6751893939394	9.1358585642654		
530	15993	1497027980	1.8983601485149	5.9372679455446	6.6852954826733	9.1409491022678		
531	15993	1497027981	1.8988715277778	5.9303188131313	6.6820549242424	9.1342212660751		
532	15993	1497027982	1.9027549342105	5.9280427631579	6.6821546052632	9.1334750202649		
533	15993	1497027983	1.9090625	5.921875	6.6907421875	9.1371736949533		
534	15993	1497027984	1.8983569587629	5.9137806056701	6.7108569587629	9.1443324425341		
535	15993	1497027985	1.893203125	5.9069140625	6.707109375	9.1362035365338		
536	15993	1497027986	1.8892697704082	5.9019451530612	6.7100207270408	9.1343458324496		
537	15993	1497027987	1.9015625	5.8293359375	6.76984375	9.1354207261032		
538	15993	1497027988	1.8918207908163	5.7935267857143	6.8077965561224	9.137905695104		
539	15993	1497027989	1.8839962121212	5.7962436868687	6.8107638888889	9.1401883283755		
540	15993	1497027990	1.8787866709184	5.8075573979592	6.7991868622449	9.1376534631097		
541	15993	1497027991	1.821796875	5.7794921875	6.825546875	9.1294098311423		
542	15993	1497027992	1.8411063762626	5.7426609848485	6.8982007575758	9.1674487961934		
543	15993	1497027993	1.8512037627551	5.6971061862245	6.9048549107143	9.1428541376099		
544	15993	1497027994	1.86640625	5.646484375	6.9434765625	9.1428045997503		
545	15993	1497027995	1.8430078125	5.628984375	6.9766015625	9.1540410741814		
546	15993	1497027996	1.8650350765306	5.6430564413265	6.9530851403061	9.1478863336666		
547	15993	1497027997	1.8890704719388	5.6392697704082	6.9446348852041	9.1437014097639		
548	15993	1497027998	1.8929368622449	5.6424585459184	6.9506536989796	9.1509840536323		
549	15993	1497027999	1.8927815755208	5.6553548177083	6.9381510416667	9.1494312191962		
550	15993	1497028000	1.8330965909091	5.7227351641414	6.8868371212121	9.1409157909043		
551	15993	1497028001	1.865	5.72	6.893046875	9.1501698350444		
552	15993	1497028002	1.8436316287879	5.7251420454545	6.877288510101	9.1369265379886		
553	15993	1497028003	1.8432264819588	5.730831185567	6.8766108247423	9.1397732614145		
554	15993	1497028004	1.8386994949495	5.7279829545455	6.8855350378788	9.1438524988772		
555	15993	1497028005	1.86078125	5.7078125	6.896796875	9.1442232788903		
556	15993	1497028006	1.8720801767677	5.6929450757576	6.8956755050505	9.1370944264817		
557	15993	1497028007	1.8753515625	5.676953125	6.9265234375	9.1507539621706		
558	15993	1497028008	1.8672269570707	5.6721117424242	6.9149305555556	9.1368605586356		
559	15993	1497028009	2.1133601641414	5.8181818181818	7.0288036616162	9.4615284420366		
560	15993	1497028010	4.3490485767327	5.6638304455446	4.8150139232673	8.7561071064178		
561	15993	1497028011	2.2280373086735	0.71711575255102	8.9936623086735	9.5422854691333		
562	15993	1497028012	0.062375332446809	0.18355219414894	9.4783078457447	9.4803106301394		
563	15993	1497028013	0.057976973684211	0.18001644736842	9.4783305921053	9.4802306421221		
564	15993	1497028014	0.057332356770833	0.1812744140625	9.4767252604167	9.4786532195612		
565	15993	1497028015	0.050947473404255	0.17806682180851	9.4777676196809	9.4795908683244		
566	15993	1497028016	0.054070723684211	0.17857730263158	9.4743421052632	9.4761915803343		
567	15993	1497028017	0.052377352150538	0.18035954301075	9.4800067204301	9.4818796752525		
568	15993	1497028018	0.052652994791667	0.180908203125	9.4747721354167	9.4766599126256		
569	15993	1497028019	0.050821940104167	0.18013509114583	9.4805501302083	9.4824119832796		
570	15993	1497028020	0.051698022959184	0.17924904336735	9.472975127551	9.4748253651661		
571	15993	1497028021	0.05078125	0.17882401315789	9.47109375	9.4729298822172		
572	15993	1497028022	0.049855025773196	0.17932506443299	9.4740657216495	9.475907679163		
573	15993	1497028023	0.051778590425532	0.18247174202128	9.4786818484043	9.4805930639955		
574	15993	1497028024	0.047979797979798	0.18067392676768	9.4767597853535	9.4786166048947		
575	15993	1497028025	0.048708545918367	0.18008609693878	9.4732541454082	9.4751043123586		
576	15993	1497028026	0.047911352040816	0.17928890306122	9.4730149872449	9.4748489839619		
577	15993	1497028027	0.0455322265625	0.1781005859375	9.4713134765625	9.4731106185154		
578	15993	1497028028	0.047911352040816	0.18168048469388	9.4725765306122	9.4744522604976		
579	15993	1497028029	0.049601236979167	0.18098958333333	9.469970703125	9.4718449837004		
580	15993	1497028030	0.0455322265625	0.17875162760417	9.4698486328125	9.471658004613		
581	15993	1497028031	0.048177083333333	0.18002352150538	9.4683299731183	9.4701770117908		
582	15993	1497028032	0.048246343085106	0.17852393617021	9.4724900265957	9.4743073602545		
583	15993	1497028033	0.04736328125	0.17915852864583	9.4700520833333	9.4718798672623		
584	15993	1497028034	0.04620422979798	0.17996369949495	9.4734453914141	9.47528240079		
585	15993	1497028035	0.04620422979798	0.1774779040404	9.4663036616162	9.4680941897548		
586	15993	1497028036	0.045337433510638	0.17748503989362	9.4704122340426	9.4721988622243		
587	15993	1497028037	0.044108072916667	0.17952473958333	9.4685872395833	9.4704046470848		
588	15993	1497028038	0.045320471938776	0.17793367346939	9.4727359693878	9.4745285792345		
589	15993	1497028039	0.045847039473684	0.17742598684211	9.4733963815789	9.4751826730573		
590	15993	1497028040	0.045626610824742	0.17964722938144	9.4703608247423	9.4721883192955		
591	15993	1497028041	0.047491776315789	0.18046875	9.4724506578947	9.4743022152447		
592	15993	1497028042	0.045559630102041	0.17793367346939	9.474609375	9.4764430709265		
593	15993	1497028043	0.044153792134831	0.17758075842697	9.471251755618	9.4730318515138		
594	15993	1497028044	0.044015786082474	0.17948614690722	9.4677432345361	9.4695618415085		
595	15993	1497028045	0.043556787634409	0.17519321236559	9.467783938172	9.4695182313134		
596	15993	1497028046	0.045020517676768	0.17771464646465	9.4702493686869	9.4720376582535		
597	15993	1497028047	0.042002255154639	0.17904317010309	9.4684681056701	9.4702660975669		
598	15993	1497028048	0.045223904639175	0.17831829896907	9.4677432345361	9.4695428493748		
599	15993	1497028049	0.045446908602151	0.17729334677419	9.4691700268817	9.4709519927909		
600	15993	1497028050	0.045328776041667	0.17805989583333	9.4687093098958	9.4705074448924		
601	15993	1497028051	0.044396841397849	0.17704133064516	9.4710601478495	9.472833633073		
602	15993	1497028052	0.043526785714286	0.17877072704082	9.469387755102	9.4711885875135		
603	15993	1497028053	0.04453125	0.1763671875	9.4719140625	9.4736748282216		
604	15993	1497028054	0.045230263157895	0.17722039473684	9.4698190789474	9.4715972808825		
605	15993	1497028055	0.041525135869565	0.17841372282609	9.4690472146739	9.4708350140156		
606	15993	1497028056	0.043675199468085	0.17806682180851	9.4705784574468	9.4723661916465		
607	15993	1497028057	0.04009271978022	0.17591002747253	9.4693938873626	9.471124375245		
608	15993	1497028058	0.041940789473684	0.17804276315789	9.4673930921053	9.4691748326053		
609	15993	1497028059	0.03993517287234	0.17769281914894	9.4651346409574	9.466897222482		
610	15993	1497028060	0.04248046875	0.17667643229167	9.4704996744792	9.4722563968867		
611	15993	1497028061	0.042530293367347	0.17602040816327	9.4634885204082	9.4652335402762		
612	15993	1497028062	0.042330994897959	0.17841198979592	9.468112244898	9.4699007876732		
613	15993	1497028063	0.041731126237624	0.17493038366337	9.4677444306931	9.4694661061727		
614	15993	1497028064	0.042146381578947	0.17775493421053	9.4706414473684	9.4724166654957		
615	15993	1497028065	0.040242513020833	0.17671712239583	9.4709879557292	9.472734537536		
616	15993	1497028066	0.040862008426966	0.17648349719101	9.4729195926966	9.4746634461088		
617	15993	1497028067	0.041312839673913	0.17629076086957	9.4700237771739	9.4717672362507		
618	15993	1497028068	0.04248046875	0.17635091145833	9.4701334635417	9.4718818501374		
619	15993	1497028069	0.039835611979167	0.17732747395833	9.4657389322917	9.4674951661098		
620	15993	1497028070	0.040501644736842	0.17722039473684	9.4650082236842	9.4667665364709		
621	15993	1497028071	0.039225260416667	0.17789713541667	9.4691975911458	9.4709628718389		
622	15993	1497028072	0.038856907894737	0.17722039473684	9.4735197368421	9.4752703178927		
623	15993	1497028073	0.038445723684211	0.17734375	9.4700246710526	9.471776725569		
624	15993	1497028074	0.041735197368421	0.17639802631579	9.4692023026316	9.4709512133639		
625	15993	1497028075	0.040296052631579	0.17512335526316	9.4699424342105	9.4716593830879		
626	15993	1497028076	0.043467420212766	0.17914727393617	9.4725315824468	9.4743387829742		
627	15993	1497028077	0.040736607142857	0.17870020604396	9.4655305631868	9.4673166046296		
628	15993	1497028078	0.041135204081633	0.17645886479592	9.4699059311224	9.4716512613715		
629	15993	1497028079	0.041181848404255	0.17432679521277	9.4703706781915	9.4720793626202		
630	15993	1497028080	0.041932397959184	0.17753507653061	9.4711814413265	9.4729523298429		
631	15993	1497028081	0.041389627659574	0.17798371010638	9.4756898271277	9.4774654682207		
632	15993	1497028082	0.040736607142857	0.17641900510204	9.4753268494898	9.4770700238447		
633	15993	1497028083	0.043467420212766	0.17706948138298	9.4756898271277	9.4774562148319		
634	15993	1497028084	0.041312839673913	0.17781929347826	9.4755859375	9.4773579116043		
635	15993	1497028085	0.041595123626374	0.17573832417582	9.4759615384615	9.477694314622		
636	15993	1497028086	0.040935905612245	0.17566167091837	9.4679129464286	9.4696448375138		
637	15993	1497028087	0.041118421052632	0.17701480263158	9.4761924342105	9.477948629793		
638	15993	1497028088	0.042636303191489	0.17748503989362	9.4682513297872	9.4700233741402		
639	15993	1497028089	0.042330994897959	0.17924904336735	9.4694674744898	9.471272544853		
640	15993	1497028090	0.0390625	0.1773046875	9.468125	9.4698776044363		
641	15993	1497028091	0.041135204081633	0.17606026785714	9.4706632653061	9.4724018041359		
642	15993	1497028092	0.042002255154639	0.17489529639175	9.4731394974227	9.47485920912		
643	15993	1497028093	0.041389627659574	0.17702792553191	9.466173537234	9.4679307790196		
644	15993	1497028094	0.039384664948454	0.17823775773196	9.4682667525773	9.4700388019495		
645	15993	1497028095	0.038726478494624	0.17523521505376	9.4666078629032	9.4683213893775		
646	15993	1497028096	0.038637066831683	0.17740563118812	9.4715733292079	9.4733254489323		
647	15993	1497028097	0.041181848404255	0.17578125	9.4686253324468	9.470359454626		
648	15993	1497028098	0.039566532258065	0.17460517473118	9.4689600134409	9.4706648041628		
649	15993	1497028099	0.041529605263158	0.17454769736842	9.46875	9.4704613344065		
650	15993	1497028100	0.039787371134021	0.17771423969072	9.4730589561856	9.4748227187439		
651	15993	1497028101	0.040537308673469	0.17685746173469	9.4618941326531	9.4636460302195		
652	15993	1497028102	0.040242513020833	0.17582194010417	9.4670003255208	9.4687323958714		
653	15993	1497028103	0.040482954545455	0.17641256313131	9.4613715277778	9.4631163542467		
654	15993	1497028104	0.04014295212766	0.17582280585106	9.4596908244681	9.4614220195836		
655	15993	1497028105	0.040935905612245	0.17645886479592	9.467434630102	9.4691812231632		
656	15993	1497028106	0.039384664948454	0.17731153350515	9.4641591494845	9.4659150773934		
657	15993	1497028107	0.041800902061856	0.1767074742268	9.4611388530928	9.4628943184137		
658	15993	1497028108	0.040995489690722	0.17529800257732	9.4654478092784	9.4671733968662		
659	15993	1497028109	0.03984375	0.175390625	9.4652734375	9.4669935385128		
660	15993	1497028110	0.040147569444444	0.17595486111111	9.4678819444444	9.4696153681659		
661	15993	1497028111	0.038250309405941	0.17574257425743	9.465114480198	9.4668347666048		
662	15993	1497028112	0.041666666666667	0.1761474609375	9.4609375	9.4626814694025		
663	15993	1497028113	0.03993517287234	0.17665392287234	9.4602310505319	9.4619783916127		
664	15993	1497028114	0.039101957070707	0.17739898989899	9.4616871843434	9.463441511488		
665	15993	1497028115	0.039356518817204	0.17691532258065	9.4562331989247	9.4579832729326		
666	15993	1497028116	0.039646192528736	0.17789152298851	9.4618354885057	9.463601798344		
667	15993	1497028117	0.040090460526316	0.17549342105263	9.4591694078947	9.4608972491769		
668	15993	1497028118	0.039679276315789	0.17557565789474	9.4583881578947	9.4601140280335		
669	15993	1497028119	0.038306451612903	0.17762936827957	9.4571572580645	9.4589172127478		
670	15993	1497028120	0.038651315789474	0.17779605263158	9.4574013157895	9.4591644144673		
671	15993	1497028121	0.041597406914894	0.17885638297872	9.4574052526596	9.4592019616127		
672	15993	1497028122	0.041324013157895	0.17804276315789	9.4566611842105	9.4584403018301		
673	15993	1497028123	0.042351973684211	0.17553453947368	9.4562911184211	9.4580290404811		
674	15993	1497028124	0.041118421052632	0.17726151315789	9.4570723684211	9.4588367574214		
675	15993	1497028125	0.0400390625	0.17716471354167	9.4600016276042	9.4617581420665		
676	15993	1497028126	0.04014295212766	0.17852393617021	9.4584025930851	9.4601857117922		
677	15993	1497028127	0.041863952020202	0.17728061868687	9.4549400252525	9.4567114450999		
678	15993	1497028128	0.040296052631579	0.17615131578947	9.45703125	9.4587712695881		
679	15993	1497028129	0.039988724226804	0.17610341494845	9.4573534149485	9.4590901961923		
680	15993	1497028130	0.040951236263736	0.17616758241758	9.4537688873626	9.4555106747933		
681	15993	1497028131	0.041805186170213	0.17644614361702	9.4579870345745	9.459736677492		
682	15993	1497028132	0.040350731382979	0.17706948138298	9.4571974734043	9.4589532047004		
683	15993	1497028133	0.040877525252525	0.17795138888889	9.4565183080808	9.4582942287757		
684	15993	1497028134	0.04248046875	0.17574055989583	9.4588216145833	9.4605611913368		
685	15993	1497028135	0.041259765625	0.17533365885417	9.4580485026042	9.4597768007063		
686	15993	1497028136	0.043259640957447	0.17511635638298	9.4582779255319	9.4600136641661		
687	15993	1497028137	0.044217139175258	0.17706990979381	9.4572728737113	9.459047696582		
688	15993	1497028138	0.042887369791667	0.17447916666667	9.4587809244792	9.4605007180479		
689	15993	1497028139	0.044700386597938	0.17469394329897	9.4551788015464	9.4569800757001		
690	15993	1497028140	0.044483418367347	0.17713647959184	9.4602200255102	9.4621331367572		
691	15993	1497028141	0.040766289893617	0.17665392287234	9.4587350398936	9.4604854283498		
692	15993	1497028142	0.039021809895833	0.17647298177083	9.4624837239583	9.4642256586821		
693	15993	1497028143	0.039988724226804	0.1754993556701	9.4604945231959	9.4622198201192		
694	15993	1497028144	0.03984375	0.177734375	9.457421875	9.459187531208		
695	15993	1497028145	0.040995489690722	0.17529800257732	9.4563466494845	9.4580736852647		
696	15993	1497028146	0.040090460526316	0.17717927631579	9.4595394736842	9.4612951372919		
697	15993	1497028147	0.038194444444444	0.17591145833333	9.4613715277778	9.4630985740316		
698	15993	1497028148	0.03857925257732	0.17590206185567	9.4579172036082	9.4596431323915		
699	15993	1497028149	0.04248046875	0.17610677083333	9.4585774739583	9.4603240817775		
700	15993	1497028150	0.039679276315789	0.17619243421053	9.4564967105263	9.4582372030588		
701	15993	1497028151	0.042646585051546	0.17404961340206	9.4591655927835	9.4608832405223		
702	15993	1497028152	0.037279211956522	0.1763332201087	9.458984375	9.4607125896858		
703	15993	1497028153	0.040285669191919	0.17499210858586	9.4586884469697	9.4604066881665		
704	15993	1497028154	0.038240131578947	0.17615131578947	9.4584703947368	9.4602009831455		
705	15993	1497028155	0.040537308673469	0.17606026785714	9.4572704081633	9.4590092038401		
706	15993	1497028156	0.039632161458333	0.17431640625	9.4585367838542	9.4602367682738		
707	15993	1497028157	0.042146381578947	0.17553453947368	9.4562911184211	9.4580268169721		
708	15993	1497028158	0.038306451612903	0.17523521505376	9.4573252688172	9.4590385442409		
709	15993	1497028159	0.039586018041237	0.17541881443299	9.457393685567	9.4591168946519		
710	15993	1497028160	0.038345025510204	0.17546237244898	9.4575095663265	9.4592268222327		
711	15993	1497028161	0.041135204081633	0.17486447704082	9.4569913903061	9.4587106378893		
712	15993	1497028162	0.042404961340206	0.17525773195876	9.4584407216495	9.4601735656886		
713	15993	1497028163	0.041196842783505	0.1767074742268	9.4567090850515	9.458461381008		
714	15993	1497028164	0.042455808080808	0.17483428030303	9.4579387626263	9.4596629892805		
715	15993	1497028165	0.042073567708333	0.1749267578125	9.4578857421875	9.4596087756357		
716	15993	1497028166	0.042751736111111	0.17703993055556	9.4598524305556	9.4616195326494		
717	15993	1497028167	0.038145727040816	0.17761479591837	9.4596619897959	9.4614201170703		
718	15993	1497028168	0.041666666666667	0.17459753787879	9.4546243686869	9.4563423108503		
719	15993	1497028169	0.039473684210526	0.17475328947368	9.4587171052632	9.4604268301771		
720	15993	1497028170	0.038780605670103	0.17610341494845	9.4518363402062	9.4535693941936		
721	15993	1497028171	0.039586018041237	0.17529800257732	9.4559842139175	9.4577040652471		
722	15993	1497028172	0.041246639784946	0.1760752688172	9.4577452956989	9.4594893397464		
723	15993	1497028173	0.040234375	0.1755859375	9.456796875	9.458526680776		
724	15993	1497028174	0.040242513020833	0.17329915364583	9.4518636067708	9.4535540349324		
725	15993	1497028175	0.039225260416667	0.1749267578125	9.4540201822917	9.4557333972625		
726	15993	1497028176	0.041118421052632	0.17722039473684	9.4541940789474	9.4559602163375		
727	15993	1497028177	0.038818359375	0.17447916666667	9.4573974609375	9.4590993199707		
728	15993	1497028178	0.040296052631579	0.17557565789474	9.4544407894737	9.456168703824		
729	15993	1497028179	0.039727393617021	0.17598902925532	9.4588181515957	9.4605506130367		
730	15993	1497028180	0.041246639784946	0.17565524193548	9.4576192876344	9.4593573629756		
731	15993	1497028181	0.037828947368421	0.17578125	9.4584703947368	9.4601926811062		
732	15993	1497028182	0.041666666666667	0.17728678385417	9.4546712239583	9.4564376438289		
733	15993	1497028183	0.039727393617021	0.17640458776596	9.4566988031915	9.4584398377466		
734	15993	1497028184	0.041246639784946	0.17628528225806	9.4549311155914	9.4566784179538		
735	15993	1497028185	0.038651315789474	0.17553453947368	9.4551398026316	9.4568606212809		
736	15993	1497028186	0.037441821808511	0.17457613031915	9.45703125	9.4587295566701		
737	15993	1497028187	0.038614908854167	0.17574055989583	9.4544677734375	9.4561918763656		
738	15993	1497028188	0.038614908854167	0.175537109375	9.4546305338542	9.4563507654527		
739	15993	1497028189	0.040592783505155	0.17598260309278	9.4556620489691	9.457404766449		
740	15993	1497028190	0.039473684210526	0.17586348684211	9.4581825657895	9.4599137054389		
741	15993	1497028191	0.039496527777778	0.17696496212121	9.4573074494949	9.459058900475		
742	15993	1497028192	0.040995489690722	0.17626449742268	9.4535679768041	9.4553143546548		
743	15993	1497028193	0.038004557291667	0.17451985677083	9.458984375	9.4606860085396		
744	15993	1497028194	0.040391430412371	0.17682828608247	9.4552190721649	9.4569717149286		
745	15993	1497028195	0.040391430412371	0.17602287371134	9.4578366623711	9.4595732582063		
746	15993	1497028196	0.038145727040816	0.17657844387755	9.4527264030612	9.4544646867614		
747	15993	1497028197	0.039835611979167	0.17769368489583	9.4515787760417	9.4533451313483		
748	15993	1497028198	0.038886938202247	0.17736130617978	9.4571190308989	9.4588742251475		
749	15993	1497028199	0.039225260416667	0.1767578125	9.4589436848958	9.4606920874503		
750	15993	1497028200	0.040338010204082	0.17645886479592	9.4617346938776	9.463481366735		
751	15993	1497028201	0.040463654891304	0.17505944293478	9.459324048913	9.4610440229409		
752	15993	1497028202	0.037977430555556	0.17708333333333	9.4595052083333	9.4612503323878		
753	15993	1497028203	0.040445963541667	0.17708333333333	9.4600830078125	9.4618419263336		
754	15993	1497028204	0.037676411290323	0.17540322580645	9.4562752016129	9.4579890045465		
755	15993	1497028205	0.040190077319588	0.17602287371134	9.4575547680412	9.4592897272867		
756	15993	1497028206	0.037417763157895	0.17487664473684	9.4596217105263	9.4613258172925		
757	15993	1497028207	0.041666666666667	0.17753092447917	9.4561360677083	9.4579068799032		
758	15993	1497028208	0.0390625	0.17495888157895	9.4622121710526	9.4639228868738		
759	15993	1497028209	0.039884868421053	0.17763157894737	9.4581825657895	9.4599460425617		
760	15993	1497028210	0.037547831632653	0.1754225127551	9.4615353954082	9.4632528181999		
761	15993	1497028211	0.037256384408602	0.17477318548387	9.4532090053763	9.4549123247204		
762	15993	1497028212	0.037828947368421	0.17594572368421	9.4598273026316	9.4615518809246		
763	15993	1497028213	0.040296052631579	0.17417763157895	9.4594983552632	9.4612292997548		
764	15993	1497028214	0.038651315789474	0.17430098684211	9.4616776315789	9.4633747885381		
765	15993	1497028215	0.040544181034483	0.17479346264368	9.4597252155172	9.4614397226837		
766	15993	1497028216	0.039835611979167	0.176513671875	9.4571533203125	9.4588989394396		
767	15993	1497028217	0.040338010204082	0.17566167091837	9.4559948979592	9.4577256970731		
768	15993	1497028218	0.035961662371134	0.17469394329897	9.4597696520619	9.4614621970394		
769	15993	1497028219	0.037676411290323	0.17645329301075	9.458501344086	9.4602344342872		
770	15993	1497028220	0.039356518817204	0.17485719086022	9.4586693548387	9.4603971908959		
771	15993	1497028221	0.040423103932584	0.17297226123596	9.4560656601124	9.457747618327		
772	15993	1497028222	0.039019574175824	0.17359203296703	9.4605082417582	9.4621937408737		
773	15993	1497028223	0.041733099489796	0.17558195153061	9.4567920918367	9.4585280467782		
774	15993	1497028224	0.038856907894737	0.17676809210526	9.4598273026316	9.4615710092907		
775	15993	1497028225	0.040391430412371	0.17501610824742	9.4584407216495	9.4601605586073		
776	15993	1497028226	0.039776545698925	0.1760752688172	9.4608954973118	9.4626284672378		
777	15993	1497028227	0.039632161458333	0.175537109375	9.4612630208333	9.4629893795858		
778	15993	1497028228	0.041398195876289	0.17545908505155	9.4576755798969	9.4594120287916		
779	15993	1497028229	0.040592783505155	0.17723099226804	9.455943943299	9.4577054565148		
780	15993	1497028230	0.039986559139785	0.1750252016129	9.4559811827957	9.4576971533778		
781	15993	1497028231	0.038240131578947	0.17491776315789	9.4567845394737	9.4584920789504		
782	15993	1497028232	0.039268092105263	0.17347861842105	9.4614720394737	9.4631545264825		
783	15993	1497028233	0.0382080078125	0.17594401041667	9.4579264322917	9.4596532236213		
784	15993	1497028234	0.038272938829787	0.17557347074468	9.4608128324468	9.4625319091311		
785	15993	1497028235	0.037773840206186	0.17767396907216	9.4548163659794	9.4565741008372		
786	15993	1497028236	0.039519614361702	0.17540724734043	9.4582779255319	9.4599997240031		
787	15993	1497028237	0.03759765625	0.17610677083333	9.4624837239583	9.4642115180735		
788	15993	1497028238	0.039586018041237	0.17449259020619	9.4588031572165	9.4605097182439		
789	15993	1497028239	0.034948470744681	0.1762383643617	9.4605634973404	9.4622807275162		
790	15993	1497028240	0.037623355263158	0.17393092105263	9.4605263157895	9.4622130960086		
791	15993	1497028241	0.039740114795918	0.17307079081633	9.4594228316327	9.4611008619765		
792	15993	1497028242	0.040826612903226	0.17544522849462	9.4551411290323	9.456870262483		
793	15993	1497028243	0.039356518817204	0.17498319892473	9.4562331989247	9.4579469360666		
794	15993	1497028244	0.037572487113402	0.17545908505155	9.4560244845361	9.4577417261021		
795	15993	1497028245	0.036626344086022	0.17460517473118	9.4604754704301	9.4621695474231		
796	15993	1497028246	0.040251358695652	0.17429517663043	9.4564368206522	9.4581450369307		
797	15993	1497028247	0.036217730978261	0.17463485054348	9.4591542119565	9.460846485535		
798	15993	1497028248	0.036692415730337	0.17472787921348	9.4554950842697	9.4571922992712		
799	15993	1497028249	0.038345025510204	0.17546237244898	9.4552774234694	9.4569955132258		
800	15993	1497028250	0.039519614361702	0.17432679521277	9.4581532579787	9.4598552485834		
801	15993	1497028251	0.036217730978261	0.1767578125	9.4559697690217	9.4577030125775		
802	15993	1497028252	0.037371134020619	0.17630476804124	9.4586823453608	9.4604130074		
803	15993	1497028253	0.038856907894737	0.17516447368421	9.4602384868421	9.4619534241311		
804	15993	1497028254	0.037212171052632	0.17368421052632	9.4548519736842	9.4565349028831		
805	15993	1497028255	0.038411458333333	0.17472330729167	9.45703125	9.4587337176979		
806	15993	1497028256	0.038688497340426	0.17411901595745	9.4572805851064	9.4589743398893		
807	15993	1497028257	0.037801106770833	0.17513020833333	9.4551595052083	9.456868037134		
808	15993	1497028258	0.038856907894737	0.17446546052632	9.4567023026316	9.4584055542964		
809	15993	1497028259	0.0400390625	0.17472330729167	9.4573160807292	9.4590270342584		
810	15993	1497028260	0.038306451612903	0.17670530913978	9.4563592069892	9.4580993289304		
811	15993	1497028261	0.037946428571429	0.17606026785714	9.4552375637755	9.4569640125785		
812	15993	1497028262	0.038614908854167	0.17451985677083	9.4560546875	9.4577563710844		
813	15993	1497028263	0.037543402777778	0.17578125	9.4596354166667	9.4613544256551		
814	15993	1497028264	0.037747130102041	0.17342952806122	9.4578683035714	9.4595454228453		
815	15993	1497028265	0.037676411290323	0.17670530913978	9.457997311828	9.4597346752639		
816	15993	1497028266	0.037026263297872	0.17332945478723	9.4576130319149	9.4592866604146		
817	15993	1497028267	0.040350731382979	0.17499168882979	9.4531665558511	9.4548833142993		
818	15993	1497028268	0.038445723684211	0.17393092105263	9.4544407894737	9.4561318323794		
819	15993	1497028269	0.0390625	0.17512335526316	9.4572368421053	9.4589532016679		
820	15993	1497028270	0.036195146276596	0.17557347074468	9.459607712766	9.4613182912108		
821	15993	1497028271	0.038856907894737	0.17310855263158	9.4560855263158	9.4577616242813		
822	15993	1497028272	0.038936491935484	0.1729250672043	9.4578713037634	9.4595450004946		
823	15993	1497028273	0.038726478494624	0.17544522849462	9.4566112231183	9.4583333936532		
824	15993	1497028274	0.039189877717391	0.17548403532609	9.4614894701087	9.4632100337753		
825	15993	1497028275	0.04014295212766	0.1729138962766	9.4535821143617	9.4552621011394		
826	15993	1497028276	0.039566532258065	0.1750252016129	9.4595934139785	9.4613072529295		
827	15993	1497028277	0.0382080078125	0.17594401041667	9.4551188151042	9.4568490649749		
828	15993	1497028278	0.038780605670103	0.1760631443299	9.4599307345361	9.4616615176699		
829	15993	1497028279	0.039663461538462	0.17616758241758	9.4551854395604	9.4569208349004		
830	15993	1497028280	0.038942920918367	0.1750637755102	9.4583864795918	9.460100387034		
831	15993	1497028281	0.038263494318182	0.17587002840909	9.4613813920455	9.463104879615		
832	15993	1497028282	0.03764960106383	0.17287234042553	9.4573636968085	9.459033698089		
833	15993	1497028283	0.038065159574468	0.17640458776596	9.4586103723404	9.4603436481143		
834	15993	1497028284	0.037371134020619	0.17690882731959	9.4556217783505	9.4573622067801		
835	15993	1497028285	0.037466397849462	0.17662130376344	9.4565692204301	9.4583048274376		
836	15993	1497028286	0.038480718085106	0.17416057180851	9.4559507978723	9.4576442933362		
837	15993	1497028287	0.037676411290323	0.1760752688172	9.4562331989247	9.4579561501136		
838	15993	1497028288	0.036364368556701	0.17529800257732	9.4554606958763	9.4571674768517		
839	15993	1497028289	0.036163015463918	0.17509664948454	9.4561050257732	9.4578072336466		
840	15993	1497028290	0.038818359375	0.17488606770833	9.4574381510417	9.4591483089309		
841	15993	1497028291	0.038977581521739	0.17399796195652	9.4571161684783	9.4588101564239		
842	15993	1497028292	0.038445723684211	0.17372532894737	9.4555098684211	9.4571936186512		
843	15993	1497028293	0.038145727040816	0.17366868622449	9.4544005102041	9.4560822142878		
844	15993	1497028294	0.040558510638298	0.17499168882979	9.4566988031915	9.4584175534015		
845	15993	1497028295	0.036767074742268	0.17465367268041	9.4548163659794	9.4565159638188		
846	15993	1497028296	0.0382080078125	0.17606608072917	9.4547119140625	9.4564400967		
847	15993	1497028297	0.03759765625	0.17451985677083	9.4574788411458	9.4591734205975		
848	15993	1497028298	0.038034539473684	0.17680921052632	9.4594161184211	9.4611557342411		
849	15993	1497028299	0.037441821808511	0.17270611702128	9.4559092420213	9.4575710583355		
850	15993	1497028300	0.038896276595745	0.17349567819149	9.4554936835106	9.457180174513		
851	15993	1497028301	0.041272095959596	0.17420296717172	9.4554924242424	9.4572012732591		
852	15993	1497028302	0.036800986842105	0.17475328947368	9.4591282894737	9.4608257820176		
853	15993	1497028303	0.039776545698925	0.17460517473118	9.4586693548387	9.4603777318838		
854	15993	1497028304	0.037975193298969	0.17521746134021	9.4569909793814	9.4587017533986		
855	15993	1497028305	0.040888247282609	0.1771824048913	9.4542289402174	9.4559919941706		
856	15993	1497028306	0.040542763157895	0.17364309210526	9.4551809210526	9.4568841660574		
857	15993	1497028307	0.039356518817204	0.17330309139785	9.4605594758065	9.4622427727977		
858	15993	1497028308	0.043301196808511	0.17848238031915	9.4592337101064	9.4611266582216		
859	15993	1497028309	0.04068023989899	0.17459753787879	9.4538352272727	9.4555491336939		
860	15993	1497028310	0.037466397849462	0.17624327956989	9.4603494623656	9.4620790047521		
861	15993	1497028311	0.039268092105263	0.17783717105263	9.4574835526316	9.4592509983727		
862	15993	1497028312	0.037417763157895	0.17471217105263	9.4599095394737	9.4616079791872		
863	15993	1497028313	0.039663461538462	0.17376373626374	9.4547561813187	9.4564485051048		
864	15993	1497028314	0.038145727040816	0.17546237244898	9.4577088647959	9.4594274851999		
865	15993	1497028315	0.040951236263736	0.17569539835165	9.4579326923077	9.4596662935454		
866	15993	1497028316	0.0400390625	0.17574055989583	9.4598388671875	9.4615683058839		
867	15993	1497028317	0.039566532258065	0.17544522849462	9.4575352822581	9.4592578047216		
868	15993	1497028318	0.0394287109375	0.174072265625	9.4589436848958	9.4606407922584		
869	15993	1497028319	0.03874362244898	0.17534279336735	9.4566326530612	9.4583502518585		
870	15993	1497028320	0.038445723684211	0.17532894736842	9.4601151315789	9.4618298141603		
871	15993	1497028321	0.038004557291667	0.17692057291667	9.4577229817708	9.459465698487		
872	15993	1497028322	0.03764960106383	0.17619680851064	9.4580701462766	9.4598010568017		
873	15993	1497028323	0.039234203296703	0.17766998626374	9.4575463598901	9.4593093417751		
874	15993	1497028324	0.037975193298969	0.17908344072165	9.4593266752577	9.4611105220163		
875	15993	1497028325	0.038034539473684	0.17615131578947	9.4547286184211	9.4564591796924		
876	15993	1497028326	0.040912828947368	0.17611019736842	9.4530016447368	9.4547518597811		
877	15993	1497028327	0.039586018041237	0.1748550257732	9.4551385309278	9.4568517620045		
878	15993	1497028328	0.038240131578947	0.17944078947368	9.4574424342105	9.459235765017		
879	15993	1497028329	0.036376953125	0.17533365885417	9.4535725911458	9.4552831877545		
880	15993	1497028330	0.041181848404255	0.17677859042553	9.4575714760638	9.4593278942517		
881	15993	1497028331	0.039835611979167	0.1734619140625	9.4575602213542	9.459252480858		
882	15993	1497028332	0.039101957070707	0.17897727272727	9.4557291666667	9.4575268347344		
883	15993	1497028333	0.038614908854167	0.17801920572917	9.4525146484375	9.4542862098908		
884	15993	1497028334	0.040935905612245	0.17900988520408	9.4543207908163	9.4561174022648		
885	15993	1497028335	0.038780605670103	0.17646585051546	9.4590850515464	9.4608236630675		
886	15993	1497028336	0.041181848404255	0.17810837765957	9.4542054521277	9.4559861661758		
887	15993	1497028337	0.040794136597938	0.17892235824742	9.4564674613402	9.4582602245347		
888	15993	1497028338	0.04296875	0.17635690789474	9.4572368421053	9.4589951148389		
889	15993	1497028339	0.038345025510204	0.17717633928571	9.4532047193878	9.4549548715143		
890	15993	1497028340	0.041246639784946	0.17712533602151	9.4598034274194	9.4615641614145		
891	15993	1497028341	0.040995489690722	0.17864046391753	9.4563466494845	9.4581380076778		
892	15993	1497028342	0.042716733870968	0.17838541666667	9.4567372311828	9.4585296663075		
893	15993	1497028343	0.040501644736842	0.17816611842105	9.4626644736842	9.4644428954344		
894	15993	1497028344	0.043009020618557	0.17807667525773	9.4625080541237	9.4643014505652		
895	15993	1497028345	0.04296875	0.17804276315789	9.4605263157895	9.4623117005116		
896	15993	1497028346	0.040088383838384	0.17732007575758	9.4633049242424	9.4650652122808		
897	15993	1497028347	0.038780605670103	0.17598260309278	9.4599710051546	9.4616995866561		
898	15993	1497028348	0.042653093434343	0.1791351010101	9.4592803030303	9.4610848281312		
899	15993	1497028349	0.042277018229167	0.1768798828125	9.4567464192708	9.4585095055973		
900	15993	1497028350	0.041181848404255	0.1781914893617	9.4569481382979	9.4587299204178		
901	15993	1497028351	0.040391430412371	0.17791559278351	9.4541720360825	9.4559496793174		
902	15993	1497028352	0.040537308673469	0.17777423469388	9.4555963010204	9.4573686342676		
903	15993	1497028353	0.041036626344086	0.17918346774194	9.4539650537634	9.4557661166257		
904	15993	1497028354	0.039496527777778	0.17660984848485	9.4566761363636	9.4584189745602		
905	15993	1497028355	0.041733099489796	0.17781409438776	9.456712372449	9.4584884777267		
906	15993	1497028356	0.040558510638298	0.17665392287234	9.4530003324468	9.4547508999187		
907	15993	1497028357	0.040794136597938	0.1754993556701	9.4569507087629	9.4586798187214		
908	15993	1497028358	0.039496527777778	0.17595486111111	9.4575520833333	9.459285391917		
909	15993	1497028359	0.041863952020202	0.17787247474747	9.4550583964646	9.4568375705191		
910	15993	1497028360	0.038707386363636	0.17676767676768	9.4530460858586	9.4547927525453		
911	15993	1497028361	0.038034539473684	0.17902960526316	9.4577713815789	9.4595562240636		
912	15993	1497028362	0.038651315789474	0.17886513157895	9.4567845394737	9.4585668883765		
913	15993	1497028363	0.040912828947368	0.17734375	9.4592927631579	9.4610562580314		
914	15993	1497028364	0.037169780927835	0.17666720360825	9.4562661082474	9.4580024362671		
915	15993	1497028365	0.041324013157895	0.17491776315789	9.4546052631579	9.4563263778464		
916	15993	1497028366	0.039189877717391	0.1767578125	9.4580502717391	9.4597976212834		
917	15993	1497028367	0.041181848404255	0.1762383643617	9.4536236702128	9.455369014009		
918	15993	1497028368	0.041324013157895	0.17717927631579	9.4557154605263	9.4574794489598		
919	15993	1497028369	0.042330994897959	0.17606026785714	9.4549585459184	9.4567067308694		
920	15993	1497028370	0.0400390625	0.17909307065217	9.452488111413	9.4542804563072		
921	15993	1497028371	0.040090460526316	0.17907072368421	9.4508223684211	9.4526152644402		
922	15993	1497028372	0.038981958762887	0.17892235824742	9.4513128221649	9.4530978942653		
923	15993	1497028373	0.039225260416667	0.17769368489583	9.450439453125	9.4522033583941		
924	15993	1497028374	0.040406586021505	0.1768313172043	9.4527469758065	9.4545025039061		
925	15993	1497028375	0.040877525252525	0.17949021464646	9.4560053661616	9.4578092150093		
926	15993	1497028376	0.038856907894737	0.17742598684211	9.4558388157895	9.4575962168047		
927	15993	1497028377	0.041533801020408	0.17617984693878	9.4566326530612	9.4583791612236		
928	15993	1497028378	0.0406494140625	0.17854817708333	9.455322265625	9.4571067770686		
929	15993	1497028379	0.040242513020833	0.1761474609375	9.4543863932292	9.4561268752744		
930	15993	1497028380	0.03764960106383	0.17893949468085	9.4585272606383	9.4603058949842		
931	15993	1497028381	0.0400390625	0.18001302083333	9.4546305338542	9.4564405512541		
932	15993	1497028382	0.039835611979167	0.17838541666667	9.4537760416667	9.4555552273733		
933	15993	1497028383	0.041529605263158	0.17804276315789	9.4562911184211	9.4580717896663		
934	15993	1497028384	0.040445963541667	0.17814127604167	9.4553629557292	9.4571409989209		
935	15993	1497028385	0.040558510638298	0.17831615691489	9.4544963430851	9.4562775574106		
936	15993	1497028386	0.042636303191489	0.17744348404255	9.4545378989362	9.4563104087496		
937	15993	1497028387	0.039519614361702	0.1768201462766	9.4528756648936	9.4546239233045		
938	15993	1497028388	0.039988724226804	0.17690882731959	9.4550982603093	9.4568494566071		
939	15993	1497028389	0.042586616847826	0.17713994565217	9.4548658288043	9.4566338682776		
940	15993	1497028390	0.0406494140625	0.17545572916667	9.4593098958333	9.4610366415229		
941	15993	1497028391	0.040445963541667	0.17716471354167	9.4536946614583	9.4554557692805		
942	15993	1497028392	0.040196572580645	0.17855342741935	9.4548891129032	9.4566723509096		
943	15993	1497028393	0.038942920918367	0.17865114795918	9.4558354591837	9.4576192822314		
944	15993	1497028394	0.040242513020833	0.1773681640625	9.4560953776042	9.4578569112574		
945	15993	1497028395	0.039614470108696	0.17667289402174	9.4590692934783	9.4608142919767		
946	15993	1497028396	0.040196572580645	0.17720934139785	9.4595514112903	9.4613115328486		
947	15993	1497028397	0.039473684210526	0.17964638157895	9.4543996710526	9.4562009060473		
948	15993	1497028398	0.041940789473684	0.17870065789474	9.4539884868421	9.4557844174697		
949	15993	1497028399	0.038004557291667	0.177734375	9.4536946614583	9.4554563180835		
950	15993	1497028400	0.038448033707865	0.17731741573034	9.4561534410112	9.457908181763		
951	15993	1497028401	0.039884868421053	0.17931743421053	9.4553865131579	9.4571851321405		
952	15993	1497028402	0.0400390625	0.17594401041667	9.4532063802083	9.4549426109935		
953	15993	1497028403	0.038096438172043	0.17809139784946	9.4556031586022	9.4573722310679		
954	15993	1497028404	0.039632161458333	0.1773681640625	9.4524739583333	9.4542340293264		
955	15993	1497028405	0.041181848404255	0.17619680851064	9.4549119015957	9.4566566230013		
956	15993	1497028406	0.039679276315789	0.17742598684211	9.4513980263158	9.4531602461249		
957	15993	1497028407	0.038176546391753	0.17892235824742	9.4510309278351	9.4528170775343		
958	15993	1497028408	0.037857380319149	0.17856549202128	9.4543301196809	9.4561050193856		
959	15993	1497028409	0.038898026315789	0.17693256578947	9.45625	9.458001109041		
960	15993	1497028410	0.039787371134021	0.17646585051546	9.4542525773196	9.4559962175716		
961	15993	1497028411	0.0406494140625	0.17728678385417	9.455078125	9.4568432357847		
962	15993	1497028412	0.040558510638298	0.17603058510638	9.4532912234043	9.4550309273176		
963	15993	1497028413	0.043009020618557	0.17537854381443	9.4558231314433	9.4575646758101		
964	15993	1497028414	0.042636303191489	0.17702792553191	9.4536652260638	9.4554337648747		
965	15993	1497028415	0.042220744680851	0.1772772606383	9.4570728058511	9.4588407453474		
966	15993	1497028416	0.039448832417582	0.1759529532967	9.4554000686813	9.4571328995438		
967	15993	1497028417	0.040974069148936	0.17827460106383	9.4517121010638	9.4534945256059		
968	15993	1497028418	0.039402173913043	0.17450747282609	9.451808763587	9.4535168478915		
969	15993	1497028419	0.041181848404255	0.17594747340426	9.4515458776596	9.4532867099606		
970	15993	1497028420	0.038004557291667	0.17716471354167	9.4546712239583	9.4564202476068		
971	15993	1497028421	0.039473684210526	0.17738486842105	9.4579769736842	9.4597360539781		
972	15993	1497028422	0.0400390625	0.175537109375	9.4533284505208	9.4550569964076		
973	15993	1497028423	0.041312839673913	0.17692764945652	9.4529551630435	9.4547135391113		
974	15993	1497028424	0.03918331185567	0.17972777061856	9.4543331185567	9.4561358360633		
975	15993	1497028425	0.039884868421053	0.17742598684211	9.4513157894737	9.4530768394278		
976	15993	1497028426	0.039986559139785	0.17897345430108	9.4548051075269	9.4565978897439		
977	15993	1497028427	0.041525135869565	0.17803158967391	9.4520210597826	9.4538015720795		
978	15993	1497028428	0.040391430412371	0.17888208762887	9.4543733891753	9.4561629774859		
979	15993	1497028429	0.043047664141414	0.17700441919192	9.4505997474747	9.4523682773172		
980	15993	1497028430	0.039104055851064	0.1762383643617	9.4528756648936	9.454611231027		
981	15993	1497028431	0.041529605263158	0.17779605263158	9.4485608552632	9.450337241907		
982	15993	1497028432	0.040138711734694	0.17952806122449	9.4506536989796	9.4524584979386		
983	15993	1497028433	0.0400390625	0.17716471354167	9.451904296875	9.4536629678521		
984	15993	1497028434	0.039197198275862	0.17582614942529	9.4521372126437	9.4538690613571		
985	15993	1497028435	0.041529605263158	0.17796052631579	9.4503700657895	9.4521499950394		
986	15993	1497028436	0.040285669191919	0.17720170454545	9.4483112373737	9.4500710440543		
987	15993	1497028437	0.039776545698925	0.17645329301075	9.4471186155914	9.4488642042095		
988	15993	1497028438	0.040675951086957	0.17798913043478	9.4549507472826	9.4567273578172		
989	15993	1497028439	0.040296052631579	0.17722039473684	9.4522615131579	9.4540205645215		
990	15993	1497028440	0.039189877717391	0.17654551630435	9.454441236413	9.4561836648944		
991	15993	1497028441	0.038780605670103	0.1781974871134	9.4524806701031	9.4542534935932		
992	15993	1497028442	0.040190077319588	0.17743234536082	9.4530444587629	9.4548094479646		
993	15993	1497028443	0.041529605263158	0.17697368421053	9.4520148026316	9.4537771846722		
994	15993	1497028444	0.040912828947368	0.17861842105263	9.4524671052632	9.454257837738		
995	15993	1497028445	0.041181848404255	0.1762383643617	9.4527925531915	9.4545379335597		
996	15993	1497028446	0.040296052631579	0.17532894736842	9.4533717105263	9.4550965707758		
997	15993	1497028447	0.04296875	0.17680921052632	9.4523848684211	9.4541473885771		
998	15993	1497028448	0.042296706989247	0.17708333333333	9.4545110887097	9.4562760482716		
999	15993	1497028449	0.039988724226804	0.17884181701031	9.4604139819588	9.4622028555504		
1000	15993	1497028450	0.042557565789474	0.17857730263158	9.45625	9.4580451910894		
1001	15993	1497028451	0.041036626344086	0.17771337365591	9.4577452956989	9.4595164139524		
1002	15993	1497028452	0.040296052631579	0.17594572368421	9.4513980263158	9.453134605354		
1003	15993	1497028453	0.040242513020833	0.177734375	9.4501139322917	9.4518846347086		
1004	15993	1497028454	0.041525135869565	0.17781929347826	9.4556300951087	9.4574063379854		
1005	15993	1497028455	0.041533801020408	0.17765465561224	9.4553571428571	9.4571316448429		
1006	15993	1497028456	0.040592783505155	0.17904317010309	9.4557023195876	9.4574988340618		
1007	15993	1497028457	0.041324013157895	0.17475328947368	9.4509046052632	9.4526215889465		
1008	15993	1497028458	0.039586018041237	0.17731153350515	9.4507893041237	9.4525454984335		
1009	15993	1497028459	0.0430908203125	0.17838541666667	9.4527994791667	9.4545931206016		
1010	15993	1497028460	0.039586018041237	0.17630476804124	9.4554606958763	9.4571987535676		
1011	15993	1497028461	0.0406494140625	0.17549641927083	9.451416015625	9.4531438830887		
1012	15993	1497028462	0.03811553030303	0.17771464646465	9.4520991161616	9.4538573197596		
1013	15993	1497028463	0.041805186170213	0.17760970744681	9.4533327792553	9.4551082647173		
1014	15993	1497028464	0.039104055851064	0.17798371010638	9.4522938829787	9.4540628626689		
1015	15993	1497028465	0.04133450255102	0.17793367346939	9.4557955994898	9.4575735240657		
1016	15993	1497028466	0.041056315104167	0.1771240234375	9.4535319010417	9.4552922817532		
1017	15993	1497028467	0.041737432065217	0.17781929347826	9.4565217391304	9.4582970869777		
1018	15993	1497028468	0.043442234848485	0.18146306818182	9.455689709596	9.4575423897829		
1019	15993	1497028469	0.0382080078125	0.17753092447917	9.4584147135417	9.4601706811745		
1020	15993	1497028470	0.0390625	0.17639802631579	9.4564967105263	9.4582326736569		
1021	15993	1497028471	0.039021809895833	0.1767578125	9.4595540364583	9.4612990318168		
1022	15993	1497028472	0.041036626344086	0.17666330645161	9.4553511424731	9.4571044397338		
1023	15993	1497028473	0.041800902061856	0.17868073453608	9.4529236469072	9.4547170281033		
1024	15993	1497028474	0.0382080078125	0.17814127604167	9.4559326171875	9.4577009401958		
1025	15993	1497028475	0.039268092105263	0.17619243421053	9.4531661184211	9.4548998735237		
1026	15993	1497028476	0.040090460526316	0.17713815789474	9.4560032894737	9.4577913815136		
1027	15993	1497028477	0.038896276595745	0.17661236702128	9.455743018617	9.4574857377079		
1028	15993	1497028478	0.041597406914894	0.17640458776596	9.4534158909574	9.455168899115		
1029	15993	1497028479	0.041324013157895	0.17598684210526	9.4565378289474	9.4582788335137		
1030	15993	1497028480	0.038942920918367	0.17705676020408	9.4575892857143	9.4593382630324		
1031	15993	1497028481	0.042455808080808	0.17570233585859	9.458648989899	9.4603949802205		
1032	15993	1497028482	0.040406586021505	0.17540322580645	9.4550991263441	9.4568261118694		
1033	15993	1497028483	0.040592783505155	0.17598260309278	9.4571117912371	9.4588483930053		
1034	15993	1497028484	0.042506720430108	0.17628528225806	9.4586693548387	9.4604196954382		
1035	15993	1497028485	0.037747130102041	0.17594068877551	9.456712372449	9.4584481253242		
1036	15993	1497028486	0.040675951086957	0.17629076086957	9.4574558423913	9.4592017179077		
1037	15993	1497028487	0.038780605670103	0.17582152061856	9.4578366623711	9.4595668106621		
1038	15993	1497028488	0.038445723684211	0.17693256578947	9.4548519736842	9.4566050066855		
1039	15993	1497028489	0.040406586021505	0.17536122311828	9.4590053763441	9.4607336598583		
1040	15993	1497028490	0.039988724226804	0.17602287371134	9.4551385309278	9.4568764825871		
1041	15993	1497028491	0.038480718085106	0.17706948138298	9.4594830452128	9.46123211834		
1042	15993	1497028492	0.040338010204082	0.17793367346939	9.4551578443878	9.4569337767085		
1043	15993	1497028493	0.038590315934066	0.17822802197802	9.4560868818681	9.4578585466679		
1044	15993	1497028494	0.041533801020408	0.1761399872449	9.4591438137755	9.4608889173002		
1045	15993	1497028495	0.040190077319588	0.17537854381443	9.4589642396907	9.4606918617019		
1046	15993	1497028496	0.0394287109375	0.1759033203125	9.4514973958333	9.4532356566211		
1047	15993	1497028497	0.038306451612903	0.17687331989247	9.4557291666667	9.4574754949737		
1048	15993	1497028498	0.039727393617021	0.17536569148936	9.4553690159574	9.4570944664351		
1049	15993	1497028499	0.042763157894737	0.17800164473684	9.4525493421053	9.4543340301285		
1050	15993	1497028500	0.041469381313131	0.1752288510101	9.4524936868687	9.4542276867376		
1051	15993	1497028501	0.041196842783505	0.17964722938144	9.4539304123711	9.4557421526336		
1052	15993	1497028502	0.036800986842105	0.17915296052632	9.4604851973684	9.4622671879642		
1053	15993	1497028503	0.040391430412371	0.17702963917526	9.4542928479381	9.4560500267908		
1054	15993	1497028504	0.040090460526316	0.17820723684211	9.4518503289474	9.4536289569208		
1055	15993	1497028505	0.039496527777778	0.17775410353535	9.4530855429293	9.4548528847814		
1056	15993	1497028506	0.039519614361702	0.17661236702128	9.4539561170213	9.4556993937404		
1057	15993	1497028507	0.039019574175824	0.17698317307692	9.4541981456044	9.4559469751558		
1058	15993	1497028508	0.039679276315789	0.17800164473684	9.4562088815789	9.4579795512738		
1059	15993	1497028509	0.039519614361702	0.17374501329787	9.4541223404255	9.4558130389682		
1060	15993	1497028510	0.038614908854167	0.1773681640625	9.4553629557292	9.4571160916628		
1061	15993	1497028511	0.040350731382979	0.17831615691489	9.4539145611702	9.4556939823695		
1062	15993	1497028512	0.038614908854167	0.17818196614583	9.4543050130208	9.4560752186905		
1063	15993	1497028513	0.039496527777778	0.17755681818182	9.4538746843434	9.4556373892319		
1064	15993	1497028514	0.043259640957447	0.17740192819149	9.4554521276596	9.4572265062148		
1065	15993	1497028515	0.039341517857143	0.17625956632653	9.4524473852041	9.4541848182988		
1066	15993	1497028516	0.040995489690722	0.17610341494845	9.4500241623711	9.451768950822		
1067	15993	1497028517	0.0390625	0.17693256578947	9.4544819078947	9.4562397679456		
1068	15993	1497028518	0.0408935546875	0.17618815104167	9.4508463541667	9.4526203848139		
1069	15993	1497028519	0.0390625	0.17574013157895	9.4539884868421	9.455715221289		
1070	15993	1497028520	0.040090460526316	0.178125	9.4542763157895	9.4560542263455		
1071	15993	1497028521	0.042296706989247	0.17876344086022	9.452158938172	9.4539561192879		
1072	15993	1497028522	0.041398195876289	0.17791559278351	9.4495409149485	9.4513182887343		
1073	15993	1497028523	0.040501644736842	0.17594572368421	9.4542351973684	9.4559739873546		
1074	15993	1497028524	0.040888247282609	0.17739470108696	9.4534222146739	9.4551881460769		
1075	15993	1497028525	0.041196842783505	0.17562016752577	9.4556620489691	9.4573975496491		
1076	15993	1497028526	0.041525135869565	0.17781929347826	9.4499830163043	9.4517599422409		
1077	15993	1497028527	0.040852864583333	0.17594401041667	9.4530843098958	9.4548223837973		
1078	15993	1497028528	0.041056315104167	0.17769368489583	9.4545491536458	9.4563205817708		
1079	15993	1497028529	0.03874362244898	0.17526307397959	9.4540417729592	9.4557593061592		
1080	15993	1497028530	0.042404961340206	0.17831829896907	9.4496214561856	9.4514130967426		
1081	15993	1497028531	0.039402173913043	0.17663043478261	9.4575407608696	9.4592885406051		
1082	15993	1497028532	0.043442234848485	0.17739898989899	9.4536379419192	9.4554243607687		
1083	15993	1497028533	0.039540816326531	0.17705676020408	9.4540019132653	9.4557552596311		
1084	15993	1497028534	0.0400390625	0.17794667119565	9.4524456521739	9.4542189261728		
1085	15993	1497028535	0.038516465053763	0.1760752688172	9.4537550403226	9.4554850326592		
1086	15993	1497028536	0.039986559139785	0.1778813844086	9.4551831317204	9.4569552182297		
1087	15993	1497028537	0.041463216145833	0.17525227864583	9.4522298177083	9.4539587686758		
1088	15993	1497028538	0.041135204081633	0.17741549744898	9.4490991709184	9.4508669073529		
1089	15993	1497028539	0.040090460526316	0.17779605263158	9.4576891447368	9.459457526985		
1090	15993	1497028540	0.040196572580645	0.17880544354839	9.4517389112903	9.453527042482		
1091	15993	1497028541	0.038486842105263	0.17717927631579	9.4532894736842	9.455042754707		
1092	15993	1497028542	0.038614908854167	0.17574055989583	9.4526774088542	9.4544010113548		
1093	15993	1497028543	0.0394287109375	0.17472330729167	9.4530843098958	9.4547961051848		
1094	15993	1497028544	0.039693813131313	0.17720170454545	9.450560290404	9.4523153001123		
1095	15993	1497028545	0.041196842783505	0.17799613402062	9.4506282216495	9.4524072497219		
1096	15993	1497028546	0.039884868421053	0.17779605263158	9.4549753289474	9.456743141633		
1097	15993	1497028547	0.038272938829787	0.17636303191489	9.4534990026596	9.4552347233059		
1098	15993	1497028548	0.03918331185567	0.17626449742268	9.4515947164948	9.4533314702287		
1099	15993	1497028549	0.041876680107527	0.17809139784946	9.4550991263441	9.4568824899105		
1100	15993	1497028550	0.038411458333333	0.17635091145833	9.4532063802083	9.4549407706311		
1101	15993	1497028551	0.040558510638298	0.17744348404255	9.450506981383	9.4522729515331		
1102	15993	1497028552	0.039693813131313	0.17680713383838	9.4497316919192	9.451481743806		
1103	15993	1497028553	0.042073567708333	0.177978515625	9.4544677734375	9.4562467134484		
1104	15993	1497028554	0.03918331185567	0.1760631443299	9.4527222938144	9.4544563021581		
1105	15993	1497028555	0.040234375	0.18	9.45125	9.4530649059056		
1106	15993	1497028556	0.039384664948454	0.17803640463918	9.4536082474227	9.4553795872119		
1107	15993	1497028557	0.040736607142857	0.17665816326531	9.453125	9.4548748698509		
1108	15993	1497028558	0.039356518817204	0.17666330645161	9.4519909274194	9.4537364034213		
1109	15993	1497028559	0.0400390625	0.17739470108696	9.4517663043478	9.453528883561		
1110	15993	1497028560	0.040707236842105	0.17783717105263	9.4553453947368	9.4571197967407		
1111	15993	1497028561	0.042798913043478	0.17654551630435	9.4533797554348	9.4551373715295		
1112	15993	1497028562	0.039988724226804	0.17686855670103	9.453487435567	9.455238966398		
1113	15993	1497028563	0.040935905612245	0.17522321428571	9.4551179846939	9.4568442165175		
1114	15993	1497028564	0.038981958762887	0.17622422680412	9.4559842139175	9.4577198011846		
1115	15993	1497028565	0.041805186170213	0.17457613031915	9.453748337766	9.4554645460287		
1116	15993	1497028566	0.038856907894737	0.17923519736842	9.4551809210526	9.4569714644575		
1117	15993	1497028567	0.041599548969072	0.17686855670103	9.4518766108247	9.4536378847583		
1118	15993	1497028568	0.040951236263736	0.17784168956044	9.4530820741758	9.4548547198245		
1119	15993	1497028569	0.040826612903226	0.17691532258065	9.4476646505376	9.4494223485259		
1120	15993	1497028570	0.04363952020202	0.17558396464646	9.4533617424242	9.4551083576069		
1121	15993	1497028571	0.042404961340206	0.17711018041237	9.4493395618557	9.451106491497		
1122	15993	1497028572	0.039384664948454	0.17811694587629	9.4507087628866	9.4524813043368		
1123	15993	1497028573	0.038707386363636	0.17660984848485	9.4494949494949	9.4512406526637		
1124	15993	1497028574	0.041469381313131	0.17716224747475	9.4505997474747	9.4523669247962		
1125	15993	1497028575	0.041196842783505	0.17586179123711	9.454574742268	9.4563144890433		
1126	15993	1497028576	0.041981907894737	0.17462993421053	9.4523026315789	9.4540733649955		
1127	15993	1497028577	0.041398195876289	0.17747261597938	9.4500241623711	9.4517942085075		
1128	15993	1497028578	0.04312818877551	0.17753507653061	9.450852997449	9.4526341288117		
1129	15993	1497028579	0.040391430412371	0.17759342783505	9.453849871134	9.455619524289		
1130	15993	1497028580	0.043294270833333	0.17671712239583	9.4515787760417	9.4533459280087		
1131	15993	1497028581	0.040581597222222	0.17903645833333	9.4532552083333	9.4550498632847		
1132	15993	1497028582	0.043294270833333	0.17549641927083	9.4498697916667	9.451612152508		
1133	15993	1497028583	0.042926747311828	0.17708333333333	9.4520329301075	9.4538034368588		
1134	15993	1497028584	0.040826612903226	0.17586525537634	9.4503108198925	9.4520486406581		
1135	15993	1497028585	0.041135204081633	0.17681760204082	9.4522480867347	9.4540025856156		
1136	15993	1497028586	0.042636303191489	0.17790059840426	9.4504238696809	9.4522078114296		
1137	15993	1497028587	0.041735197368421	0.17660361842105	9.4549753289474	9.456728379986		
1138	15993	1497028588	0.043904622395833	0.17915852864583	9.4517822265625	9.453595122501		
1139	15993	1497028589	0.042887369791667	0.17960611979167	9.4541829427083	9.4559994353455		
1140	15993	1497028590	0.043442234848485	0.17810921717172	9.4519807449495	9.4537740488156		
1141	15993	1497028591	0.045129654255319	0.1762383643617	9.4530003324468	9.4547627433829		
1142	15993	1497028592	0.044418492268041	0.1769893685567	9.452762564433	9.4545386546806		
1143	15993	1497028593	0.042683919270833	0.17671712239583	9.4532470703125	9.4550080114039		
1144	15993	1497028594	0.042557565789474	0.17759046052632	9.4497944078947	9.4515698871186		
1145	15993	1497028595	0.044217139175258	0.17723099226804	9.4567896262887	9.4585653059785		
1146	15993	1497028596	0.043497721354167	0.177978515625	9.4532063802083	9.4549948945755		
1147	15993	1497028597	0.045827963917526	0.17706990979381	9.4544942010309	9.456276668527		
1148	15993	1497028598	0.041800902061856	0.17706990979381	9.4527222938144	9.4544872801247		
1149	15993	1497028599	0.046432023195876	0.17864046391753	9.4527222938144	9.4545371746365		
1150	15993	1497028600	0.042073567708333	0.17732747395833	9.4500325520833	9.4518017126305		
1151	15993	1497028601	0.045939127604167	0.17830403645833	9.454833984375	9.4566399201445		
1152	15993	1497028602	0.04248046875	0.18037923177083	9.44970703125	9.4515355415817		
1153	15993	1497028603	0.04363952020202	0.17680713383838	9.4532039141414	9.4549712190418		
1154	15993	1497028604	0.04248046875	0.17635091145833	9.4524332682292	9.4541877953653		
1155	15993	1497028605	0.045134171195652	0.17905061141304	9.453761888587	9.4555768047018		
1156	15993	1497028606	0.040592783505155	0.17469394329897	9.4498630798969	9.4515771851503		
1157	15993	1497028607	0.043976814516129	0.17691532258065	9.4526629704301	9.4544327158765		
1158	15993	1497028608	0.044497282608696	0.17781929347826	9.4536769701087	9.4554654852799		
1159	15993	1497028609	0.04312818877551	0.17582110969388	9.4507732780612	9.4525187898603		
1160	15993	1497028610	0.040852864583333	0.17793782552083	9.4521077473958	9.4538855945502		
1161	15993	1497028611	0.04242852393617	0.17665392287234	9.4520861037234	9.4538433404979		
1162	15993	1497028612	0.040707236842105	0.17701480263158	9.4533717105263	9.4551278866134		
1163	15993	1497028613	0.041135204081633	0.17821269132653	9.4497369260204	9.4515207888575		
1164	15993	1497028614	0.041932397959184	0.17885044642857	9.4479432397959	9.4497430490645		
1165	15993	1497028615	0.039679276315789	0.17701480263158	9.4525904605263	9.4543438159662		
1166	15993	1497028616	0.041800902061856	0.17711018041237	9.452037693299	9.4538012612293		
1167	15993	1497028617	0.041597406914894	0.17715259308511	9.453125	9.4548907226337		
1168	15993	1497028618	0.043136760752688	0.17775537634409	9.4537550403226	9.4555385829873		
1169	15993	1497028619	0.039632161458333	0.17757161458333	9.4497884114583	9.4515505394367		
1170	15993	1497028620	0.041940789473684	0.17841282894737	9.4486430921053	9.4504315630459		
1171	15993	1497028621	0.041259765625	0.17488606770833	9.4512939453125	9.4530151082692		
1172	15993	1497028622	0.040852864583333	0.1768798828125	9.451416015625	9.4531717062065		
1173	15993	1497028623	0.041666666666667	0.17793782552083	9.4503173828125	9.4520984249007		
1174	15993	1497028624	0.041863952020202	0.17834595959596	9.4481928661616	9.4499821398725		
1175	15993	1497028625	0.040558510638298	0.17831615691489	9.4518783244681	9.4536579991351		
1176	15993	1497028626	0.040852864583333	0.17525227864583	9.4497884114583	9.4515172228648		
1177	15993	1497028627	0.040445963541667	0.17427571614583	9.4534505208333	9.4551565156084		
1178	15993	1497028628	0.041863952020202	0.17716224747475	9.4519018308081	9.4536677549955		
1179	15993	1497028629	0.039891098484848	0.17518939393939	9.4530066287879	9.454724163207		
1180	15993	1497028630	0.041800902061856	0.17831829896907	9.4530041881443	9.4547927420934		
1181	15993	1497028631	0.040445963541667	0.176513671875	9.4503580729167	9.4521077220095		
1182	15993	1497028632	0.039986559139785	0.17918346774194	9.4475806451613	9.4493765920416		
1183	15993	1497028633	0.041666666666667	0.17918346774194	9.4525369623656	9.4543391777596		
1184	15993	1497028634	0.041118421052632	0.17639802631579	9.4502055921053	9.451952765607		
1185	15993	1497028635	0.041389627659574	0.1786486037234	9.4540807845745	9.455872739335		
1186	15993	1497028636	0.040852864583333	0.17574055989583	9.4525960286458	9.4543294447279		
1187	15993	1497028637	0.042086693548387	0.17876344086022	9.4532090053763	9.4550058971374		
1188	15993	1497028638	0.041735197368421	0.17722039473684	9.4535361842105	9.4553012907886		
1189	15993	1497028639	0.042330994897959	0.1770169005102	9.455397002551	9.4571608605398		
1190	15993	1497028640	0.040501644736842	0.17578125	9.4517680921053	9.4535016319525		
1191	15993	1497028641	0.042330994897959	0.17657844387755	9.4540417729592	9.4558002914726		
1192	15993	1497028642	0.041805186170213	0.1768201462766	9.4490109707447	9.4507701889381		
1193	15993	1497028643	0.049904336734694	0.17087850765306	9.4510921556122	9.4528740010128		
1194	15993	1497028644	0.037664473684211	0.19120065789474	9.4509046052632	9.4529553198455		
1195	15993	1497028645	0.042220744680851	0.18047706117021	9.4552443484043	9.4570743962257		
1196	15993	1497028646	0.041398195876289	0.18109697164948	9.4514336340206	9.4532722001966		
1197	15993	1497028647	0.044921875	0.17841198979592	9.4519690688776	9.4537744305904		
1198	15993	1497028648	0.042729591836735	0.18048469387755	9.4556361607143	9.4574687051606		
1199	15993	1497028649	0.040794136597938	0.1811775128866	9.4518766108247	9.4537142293231		
1200	15993	1497028650	0.041324013157895	0.18145559210526	9.4516447368421	9.453489305549		
1201	15993	1497028651	0.041463216145833	0.18294270833333	9.4503580729167	9.452233742692		
1202	15993	1497028652	0.040196572580645	0.18086357526882	9.4554351478495	9.4572637744092		
1203	15993	1497028653	0.041666666666667	0.18130523989899	9.4527304292929	9.454574932801		
1204	15993	1497028654	0.042073567708333	0.18013509114583	9.4545491536458	9.4563727750579		
1205	15993	1497028655	0.040190077319588	0.18137886597938	9.4513530927835	9.4531928100607		
1206	15993	1497028656	0.041312839673913	0.17879585597826	9.4558848505435	9.4576777372477		
1207	15993	1497028657	0.042404961340206	0.1799693943299	9.4490979381443	9.4509207037313		
1208	15993	1497028658	0.039776545698925	0.18208165322581	9.4504788306452	9.4523278085507		
1209	15993	1497028659	0.040338010204082	0.18144132653061	9.4522480867347	9.4540873546204		
1210	15993	1497028660	0.042636303191489	0.17993683510638	9.4539976728723	9.4558194213272		
1211	15993	1497028661	0.040826612903226	0.18216565860215	9.4506048387097	9.452460556162		
1212	15993	1497028662	0.041800902061856	0.18141913659794	9.4536485180412	9.4554945036087		
1213	15993	1497028663	0.040391430412371	0.18222454896907	9.4546150128866	9.4564708637636		
1214	15993	1497028664	0.043136760752688	0.1817876344086	9.4489247311828	9.4507847763867		
1215	15993	1497028665	0.03671875	0.1810546875	9.4518359375	9.4536545078678		
1216	15993	1497028666	0.040592783505155	0.18029155927835	9.449581185567	9.4513983248201		
1217	15993	1497028667	0.039939413265306	0.18176020408163	9.4488600127551	9.4507047473858		
1218	15993	1497028668	0.043585526315789	0.18252467105263	9.4490953947368	9.4509722053313		
1219	15993	1497028669	0.039104055851064	0.17989527925532	9.4531665558511	9.4549728963458		
1220	15993	1497028670	0.042530293367347	0.17960778061224	9.4522082270408	9.4540233681715		
1221	15993	1497028671	0.040537308673469	0.1823580994898	9.4555963010204	9.4574537593033		
1222	15993	1497028672	0.039311835106383	0.18114195478723	9.4497174202128	9.4515481271139		
1223	15993	1497028673	0.040888247282609	0.1801120923913	9.4552904211957	9.4571081040695		
1224	15993	1497028674	0.041666666666667	0.18213383838384	9.4522569444444	9.4541184365841		
1225	15993	1497028675	0.0406494140625	0.1820068359375	9.4500325520833	9.4518836130215		
1226	15993	1497028676	0.040974069148936	0.18134973404255	9.4529172207447	9.454760882002		
1227	15993	1497028677	0.044418492268041	0.17928479381443	9.4531652706186	9.4549826133887		
1228	15993	1497028678	0.040542763157895	0.18087993421053	9.4515213815789	9.453367879702		
1229	15993	1497028679	0.042404961340206	0.18045264175258	9.4590045103093	9.460844029153		
1230	15993	1497028680	0.041666666666667	0.18006552419355	9.457997311828	9.4598240199678		
1231	15993	1497028681	0.039986559139785	0.17918346774194	9.45703125	9.4588246452269		
1232	15993	1497028682	0.042131696428571	0.18275669642857	9.461256377551	9.4631318311342		
1233	15993	1497028683	0.043093417553191	0.18188996010638	9.4630568484043	9.4649356123929		
1234	15993	1497028684	0.040581597222222	0.180078125	9.4641493055556	9.4659632647183		
1235	15993	1497028685	0.042171556122449	0.18375318877551	9.4601403061224	9.4620619869355		
1236	15993	1497028686	0.040296052631579	0.18050986842105	9.4618009868421	9.4636253164764		
1237	15993	1497028687	0.040912828947368	0.18429276315789	9.4543585526316	9.4562582592392		
1238	15993	1497028688	0.03993517287234	0.18143284574468	9.4572390292553	9.4590757084868		
1239	15993	1497028689	0.040912828947368	0.18174342105263	9.4584292763158	9.4602772690567		
1240	15993	1497028690	0.038688497340426	0.18089261968085	9.4572390292553	9.4590637791426		
1241	15993	1497028691	0.041196842783505	0.18302996134021	9.4579172036082	9.4597919472813		
1242	15993	1497028692	0.042683919270833	0.1832275390625	9.4578043619792	9.4596891651387		
1243	15993	1497028693	0.040592783505155	0.18250644329897	9.456668814433	9.4585400911516		
1244	15993	1497028694	0.042002255154639	0.18077480670103	9.4565882731959	9.4584280487247		
1245	15993	1497028695	0.039586018041237	0.18149967783505	9.4546552835052	9.4564942329797		
1246	15993	1497028696	0.040794136597938	0.18129832474227	9.4547760953608	9.4566149884306		
1247	15993	1497028697	0.041599548969072	0.17851965206186	9.4582796391753	9.4600677641365		
1248	15993	1497028698	0.039384664948454	0.18311050257732	9.4554606958763	9.4573296042118		
1249	15993	1497028699	0.04296875	0.18207236842105	9.4597039473684	9.4615671044994		
1250	15993	1497028700	0.041463216145833	0.18115234375	9.4534912109375	9.4553303307213		
1251	15993	1497028701	0.041666666666667	0.17964549731183	9.449470766129	9.4512852640562		
1252	15993	1497028702	0.041800902061856	0.18278833762887	9.4578769329897	9.4597489167332		
1253	15993	1497028703	0.0418701171875	0.18216959635417	9.4530843098958	9.454943484812		
1254	15993	1497028704	0.040616599462366	0.18296370967742	9.4590473790323	9.4609174753541		
1255	15993	1497028705	0.043051861702128	0.18434175531915	9.4549950132979	9.4569034950375		
1256	15993	1497028706	0.04133450255102	0.18279655612245	9.4544802295918	9.4563535788348		
1257	15993	1497028707	0.039104055851064	0.18346908244681	9.4554105718085	9.4572838326051		
1258	15993	1497028708	0.040912828947368	0.18203125	9.4611842105263	9.4630369684371		
1259	15993	1497028709	0.038780605670103	0.18041237113402	9.4543331185567	9.4561462412477		
1260	15993	1497028710	0.040826612903226	0.18224966397849	9.4537130376344	9.4555705748037		
1261	15993	1497028711	0.039776545698925	0.18359375	9.4532930107527	9.4551729122032		
1262	15993	1497028712	0.038176546391753	0.18133859536082	9.4524403994845	9.4542682653907		
1263	15993	1497028713	0.038411458333333	0.18208821614583	9.4501546223958	9.4519996473528		
1264	15993	1497028714	0.04133450255102	0.18387276785714	9.4481823979592	9.4500743347956		
1265	15993	1497028715	0.03918331185567	0.18335212628866	9.452400128866	9.4542724211048		
1266	15993	1497028716	0.042887369791667	0.18330891927083	9.4495442708333	9.451432579268		
1267	15993	1497028717	0.040912828947368	0.18182565789474	9.4544819078947	9.4563310512008		
1268	15993	1497028718	0.038034539473684	0.18347039473684	9.4501233552632	9.4519912970526		
1269	15993	1497028719	0.040592783505155	0.18234536082474	9.4521182345361	9.4539784125196		
1270	15993	1497028720	0.039510091145833	0.18843587239583	9.4512532552083	9.4532698805121		
1271	15993	1497028721	0.046598800505051	0.17534722222222	9.4505208333333	9.4523578859473		
1272	15993	1497028722	0.04014295212766	0.17989527925532	9.4532912234043	9.4551012705114		
1273	15993	1497028723	0.042220744680851	0.18168218085106	9.452501662234	9.4543653361731		
1274	15993	1497028724	0.041463216145833	0.1793212890625	9.4552408854167	9.4570456794425		
1275	15993	1497028725	0.039104055851064	0.17881482712766	9.450506981383	9.452291613912		
1276	15993	1497028726	0.042002255154639	0.17851965206186	9.4490979381443	9.4509043818224		
1277	15993	1497028727	0.04125	0.1831640625	9.453359375	9.4552516307765		
1278	15993	1497028728	0.041469381313131	0.17929292929293	9.4524936868687	9.4542991350803		
1279	15993	1497028729	0.042220744680851	0.18026928191489	9.4566572473404	9.458483630381		
1280	15993	1497028730	0.042530293367347	0.18239795918367	9.4524473852041	9.4543159720132		
1281	15993	1497028731	0.044514973958333	0.1817626953125	9.4556884765625	9.45755361781		
1282	15993	1497028732	0.0400390625	0.18096127717391	9.4513841711957	9.4532129630813		
1283	15993	1497028733	0.040888247282609	0.18240489130435	9.451511548913	9.4533720788774		
1284	15993	1497028734	0.040852864583333	0.17985026041667	9.4514973958333	9.4533127457221		
1285	15993	1497028735	0.041324013157895	0.17993421052632	9.4517269736842	9.4535456610043		
1286	15993	1497028736	0.042296706989247	0.1799815188172	9.4524529569892	9.4542733655776		
1287	15993	1497028737	0.041800902061856	0.17980831185567	9.4526417525773	9.4544591576752		
1288	15993	1497028738	0.039384664948454	0.18572809278351	9.4550177190722	9.4569352913604		
1289	15993	1497028739	0.040501644736842	0.18104440789474	9.4546052631579	9.456439216143		
1290	15993	1497028740	0.040445963541667	0.1793212890625	9.457763671875	9.4595656420505		
1291	15993	1497028741	0.04242852393617	0.17906416223404	9.4539976728723	9.4558016559811		
1292	15993	1497028742	0.041456653225806	0.17888944892473	9.4546790994624	9.4564752465242		
1293	15993	1497028743	0.042203608247423	0.1796875	9.4530847293814	9.4548984643935		
1294	15993	1497028744	0.040338010204082	0.18191964285714	9.4556361607143	9.4574840891781		
1295	15993	1497028745	0.042146381578947	0.18145559210526	9.4534128289474	9.455268167536		
1296	15993	1497028746	0.0400390625	0.17989095052083	9.4601643880208	9.461970979255		
1297	15993	1497028747	0.039988724226804	0.18069426546392	9.4556620489691	9.4574858939606		
1298	15993	1497028748	0.04321037371134	0.18129832474227	9.4551385309278	9.4569875139666		
1299	15993	1497028749	0.041398195876289	0.17896262886598	9.4548163659794	9.4566153891155		
1300	15993	1497028750	0.041666666666667	0.18300571236559	9.4541330645161	9.4560092562297		
1301	15993	1497028751	0.040196572580645	0.18069556451613	9.4575352822581	9.4593602454157		
1302	15993	1497028752	0.042277018229167	0.1817626953125	9.4550374348958	9.4568904967172		
1303	15993	1497028753	0.040242513020833	0.1802978515625	9.45654296875	9.4583587149495		
1304	15993	1497028754	0.039787371134021	0.1808956185567	9.454574742268	9.4564016934391		
1305	15993	1497028755	0.041463216145833	0.17976888020833	9.4564208984375	9.4582342180219		
1306	15993	1497028756	0.041398195876289	0.18178157216495	9.4546955541237	9.4565483263994		
1307	15993	1497028757	0.03918331185567	0.18141913659794	9.4573131443299	9.4591448949081		
1308	15993	1497028758	0.042455808080808	0.18201546717172	9.4557686237374	9.457631564775		
1309	15993	1497028759	0.041597406914894	0.17873171542553	9.4579870345745	9.4597792189999		
1310	15993	1497028760	0.042404961340206	0.18009020618557	9.4589239690722	9.4607470701928		
1311	15993	1497028761	0.039884868421053	0.18018092105263	9.4586759868421	9.4604894443505		
1312	15993	1497028762	0.041876680107527	0.17851142473118	9.4556871639785	9.457477935058		
1313	15993	1497028763	0.040592783505155	0.18081507731959	9.4584407216495	9.4602701195917		
1314	15993	1497028764	0.04242852393617	0.1807263962766	9.4569481382979	9.458783868137		
1315	15993	1497028765	0.043368252840909	0.18075284090909	9.4515713778409	9.4534094784458		
1316	15993	1497028766	0.042926747311828	0.18132560483871	9.4524949596774	9.4543434569847		
1317	15993	1497028767	0.042296706989247	0.18040154569892	9.459467405914	9.4612962153799		
1318	15993	1497028768	0.041312839673913	0.18074898097826	9.4600458559783	9.4618750771552		
1319	15993	1497028769	0.041118421052632	0.18042763157895	9.4568256578947	9.4586492726428		
1320	15993	1497028770	0.0426171875	0.18109375	9.45671875	9.4585774468791		
1321	15993	1497028771	0.042598684210526	0.18227796052632	9.4543996710526	9.4562875795085		
1322	15993	1497028772	0.040995489690722	0.18170103092784	9.4552593427835	9.4571465843422		
1323	15993	1497028773	0.043526785714286	0.18032525510204	9.4553571428571	9.4571909960177		
1324	15993	1497028774	0.042887369791667	0.17976888020833	9.4562581380208	9.4580764208073		
1325	15993	1497028775	0.042203608247423	0.18029155927835	9.4571520618557	9.4589776505142		
1326	15993	1497028776	0.041805186170213	0.18010305851064	9.4517121010638	9.4535330555878		
1327	15993	1497028777	0.043009440104167	0.18009440104167	9.4516194661458	9.4535211710973		
1328	15993	1497028778	0.042716733870968	0.18040154569892	9.4544690860215	9.4563000983714		
1329	15993	1497028779	0.04312818877551	0.177734375	9.453762755102	9.4555690620891		
1330	15993	1497028780	0.041932397959184	0.17877072704082	9.4570711096939	9.458867601061		
1331	15993	1497028781	0.043294270833333	0.18058268229167	9.4518229166667	9.4536612202528		
1332	15993	1497028782	0.042404961340206	0.1808956185567	9.4535679768041	9.4554069669198		
1333	15993	1497028783	0.044124681122449	0.17916932397959	9.4536830357143	9.4554968563592		
1334	15993	1497028784	0.044231376262626	0.18047664141414	9.4546243686869	9.4564615887666		
1335	15993	1497028785	0.042586616847826	0.18159816576087	9.4576256793478	9.4594776115241		
1336	15993	1497028786	0.042798913043478	0.17943274456522	9.4567340353261	9.4585449479368		
1337	15993	1497028787	0.042887369791667	0.18033854166667	9.452880859375	9.454710761895		
1338	15993	1497028788	0.040736607142857	0.17891483516484	9.4577180631868	9.4595110303431		
1339	15993	1497028789	0.042374320652174	0.18070652173913	9.4521908967391	9.4540265663787		
1340	15993	1497028790	0.042330994897959	0.17837213010204	9.4544802295918	9.4562718321625		
1341	15993	1497028791	0.042850378787879	0.18158143939394	9.4546243686869	9.4564794183495		
1342	15993	1497028792	0.042683919270833	0.18123372395833	9.4534912109375	9.4553357289458		
1343	15993	1497028793	0.044759114583333	0.18184407552083	9.450439453125	9.452392008482		
1344	15993	1497028794	0.040852864583333	0.17960611979167	9.4522705078125	9.4540774362832		
1345	15993	1497028795	0.041599548969072	0.17783505154639	9.4530847293814	9.4548627733124		
1346	15993	1497028796	0.042203608247423	0.17956668814433	9.4606958762887	9.4625088518438		
1347	15993	1497028797	0.041666666666667	0.18119303385417	9.4591471354167	9.4609883455293		
1348	15993	1497028798	0.042729591836735	0.18084343112245	9.4545599489796	9.4564015551984		
1349	15993	1497028799	0.041456653225806	0.17922547043011	9.4563592069892	9.4581610558367		
1350	15993	1497028800	0.041666666666667	0.17919360632184	9.4597701149425	9.4615721080215		
