n	Session	accelerometer.seconds.Unix	accelerometer.accx.Average	accelerometer.accy.Average	accelerometer.accz.Average	accelerometer.accx.Average-All	events.type	events.description
1	16032	1497115672	1.0685096153846	2.5484525240385	8.8828876201923	9.3974064749218		
2	16032	1497115673	1.1315104166667	1.8032275883838	9.3389362373737	9.6759198920397		
3	16032	1497115674	1.554016729798	3.0537010732323	8.815459280303	9.5397829325424		
4	16032	1497115675	0.8176171875	2.01890625	8.961015625	9.2707955189609		
5	16032	1497115676	1.0501036352041	2.0824697066327	8.9951371173469	9.3210171001344		
6	16032	1497115677	0.5952400128866	2.3790673324742	9.0220280283505	9.3588745582727		
7	16032	1497115678	0.56584246134021	2.3784632731959	8.9984697164948	9.3284296961349		
8	16032	1497115679	0.45429284793814	2.6138853092784	8.9505879510309	9.3364883870607		
9	16032	1497115680	0.74291237113402	2.6518202319588	8.8797519329897	9.3036798532144		
10	16032	1497115681	0.61315524193548	2.6516717069892	8.9270413306452	9.3378104815754		
11	16032	1497115682	0.52130315721649	2.6068379510309	8.922237435567	9.3118527916236		
12	16032	1497115683	0.49266581632653	2.7188695790816	8.8551897321429	9.28155615555		
13	16032	1497115684	0.71711575255102	2.8498485331633	8.8475765306122	9.3280715839897		
14	16032	1497115685	0.6109693877551	2.5746173469388	8.9183274872449	9.3135327419657		
15	16032	1497115686	0.42660984848485	2.8729087752525	8.8249684343434	9.2931967901548		
16	16032	1497115687	1.0359765625	3.06375	8.69953125	9.2928340539695		
17	16032	1497115688	0.90709568298969	3.191768685567	8.7299452319588	9.3680880257893		
18	16032	1497115689	0.60307716836735	2.818359375	8.7865114795918	9.2680924608051		
19	16032	1497115690	0.56257891414141	3.049439709596	8.7563920454545	9.304629971305		
20	16032	1497115691	0.57879577020202	3.0800583964646	8.8255997474747	9.3921321261364		
21	16032	1497115692	0.3581640625	2.9291796875	8.6309375	9.1382744039272		
22	16032	1497115693	0.49103156887755	3.4631696428571	8.6515066964286	9.3924964382624		
23	16032	1497115694	1.0390234375	1.8861328125	9.1930078125	9.5491684223161		
24	16032	1497115695	1.6044428661616	2.1405460858586	8.7912326388889	9.318201928067		
25	16032	1497115696	1.813446969697	1.3590988005051	9.8560211489899	10.250983507001		
26	16032	1497115697	1.3175621811224	1.7449776785714	9.3830516581633	9.7383314643122		
27	16032	1497115698	1.4006640625	2.181875	9.06375	9.6244342524164		
28	16032	1497115699	1.1287854381443	1.4665351159794	8.8991221005155	9.1823090322961		
29	16032	1497115700	1.5409757653061	0.48429528061224	9.1986607142857	9.42672781925		
30	16032	1497115701	0.76833545918367	3.5693957270408	8.9953762755102	9.948088073532		
31	16032	1497115702	0.41890625	5.114765625	7.2384765625	9.0423022503946		
32	16032	1497115703	0.8706640625	4.8351953125	7.8516796875	9.3324952380278		
33	16032	1497115704	0.466171875	4.67734375	7.9090625	9.2275727730129		
34	16032	1497115705	0.14295296717172	4.7979403409091	7.8629261363636	9.2242268429179		
35	16032	1497115706	0.6680078125	4.9002734375	7.7357421875	9.1992575256447		
36	16032	1497115707	0.61364368556701	4.7853173324742	7.8402867268041	9.2062787804996		
37	16032	1497115708	0.48796559343434	4.1810684974747	8.2294428661616	9.2616441575693		
38	16032	1497115709	0.47959183673469	4.8860012755102	7.760403380102	9.2012162794202		
39	16032	1497115710	0.57182716836735	4.728196747449	7.8579799107143	9.2451931764297		
40	16032	1497115711	0.4030612244898	4.7840401785714	7.7656648596939	9.1769594198419		
41	16032	1497115712	0.29604640151515	5.4953440656566	7.3477746212121	9.1871760990324		
42	16032	1497115713	0.272890625	5.4930859375	7.3453125	9.1805693776063		
43	16032	1497115714	0.35763888888889	5.452454229798	7.34765625	9.165433688249		
44	16032	1497115715	0.80835700757576	5.5677872474747	7.2311789772727	9.2161380966111		
45	16032	1497115716	1.1661537247475	6.1343907828283	6.6766493055556	9.1498124662978		
46	16032	1497115717	1.1068239795918	6.2080676020408	6.6047512755102	9.1409882806904		
47	16032	1497115718	1.1806441326531	6.2407126913265	6.5511798469388	9.138670509619		
48	16032	1497115719	1.0276256443299	6.203125	6.6219394329897	9.1410127417969		
49	16032	1497115720	0.8298216540404	6.2100694444444	6.6183317550505	9.130801760181		
50	16032	1497115721	0.82106218434343	6.193023989899	6.6376262626263	9.1280662005043		
51	16032	1497115722	0.59761679292929	4.1645359848485	8.2764756944444	9.3667423952712		
52	16032	1497115723	0.57236426767677	4.5276594065657	7.9419586489899	9.1840965258866		
53	16032	1497115724	0.44224330357143	3.7873883928571	8.461256377551	9.2826293020691		
54	16032	1497115725	0.478515625	3.8726806640625	8.4027913411458	9.2648932884657		
55	16032	1497115726	0.45939867424242	3.884154040404	8.3929529671717	9.2600419534792		
56	16032	1497115727	0.44724548969072	3.828125	8.4267880154639	9.2667172741817		
57	16032	1497115728	2.1024305555556	2.6235006313131	8.3071732954545	9.2861592898882		
58	16032	1497115729	3.7265234375	0.5933984375	9.3771484375	10.265591525417		
59	16032	1497115730	1.0217864046392	0.28499516752577	9.3429848582474	9.4369788423313		
60	16032	1497115731	0.0802734375	0.1332421875	9.53125	9.5326612854252		
61	16032	1497115732	0.076312822164948	0.15677351804124	9.5347132731959	9.5367654766581		
62	16032	1497115733	0.082433956185567	0.13196681701031	9.5307264819588	9.5320925011017		
63	16032	1497115734	0.080519153225806	0.13428259408602	9.532216061828	9.5335163005613		
64	16032	1497115735	0.07824581185567	0.13603414948454	9.534068943299	9.5353756143345		
65	16032	1497115736	0.075846354166667	0.13566080729167	9.5340576171875	9.5353380884473		
66	16032	1497115737	0.075829574742268	0.13462467783505	9.5325386597938	9.5338055902473		
67	16032	1497115738	0.077037693298969	0.13482603092784	9.5310889175258	9.5323688463965		
68	16032	1497115739	0.076088763297872	0.13572140957447	9.5319564494681	9.533243484697		
69	16032	1497115740	0.080799932065217	0.13429857336957	9.5402088994565	9.5415099247794		
70	16032	1497115741	0.077158938172043	0.1359627016129	9.5386844758065	9.5399767851712		
71	16032	1497115742	0.076919880319149	0.13676030585106	9.5379820478723	9.5392859390737		
72	16032	1497115743	0.079679099462366	0.13680275537634	9.5404905913978	9.5418178251535		
73	16032	1497115744	0.080460695876289	0.13482603092784	9.5387403350515	9.5400464867138		
74	16032	1497115745	0.074017396907216	0.13583279639175	9.5328608247423	9.5341290571645		
75	16032	1497115746	0.079453930412371	0.1376449742268	9.5353173324742	9.5366588668537		
76	16032	1497115747	0.077440399484536	0.1364368556701	9.533706507732	9.5350121011825		
77	16032	1497115748	0.075829574742268	0.13744362113402	9.5352770618557	9.5365862169985		
78	16032	1497115749	0.072972074468085	0.13447473404255	9.5355302526596	9.5367711318372		
79	16032	1497115750	0.075268817204301	0.13554267473118	9.5327620967742	9.5340344365064		
80	16032	1497115751	0.18096301020408	0.14556760204082	9.5297353316327	9.5386948846262		
81	16032	1497115752	1.1824100378788	1.8875473484848	9.9152462121212	10.437741768495		
82	16032	1497115753	2.8957669005102	1.7052774234694	7.9168526785714	8.741948588645		
83	16032	1497115754	0.80203125	1.1169140625	9.533515625	9.6994764694908		
84	16032	1497115755	0.307578125	0.2719921875	9.5443359375	9.5557711848875		
85	16032	1497115756	0.067301432291667	0.13419596354167	9.512939453125	9.5141452256836		
86	16032	1497115757	0.11831507731959	0.14952480670103	9.5103898195876	9.5135238905776		
87	16032	1497115758	0.073314144736842	0.13013980263158	9.5136101973684	9.5148552202992		
88	16032	1497115759	0.115234375	0.1815234375	9.50625	9.5099267243494		
89	16032	1497115760	0.073588709677419	0.12840221774194	9.506342405914	9.5075121985748		
90	16032	1497115761	0.075797032828283	0.12807765151515	9.5081281565657	9.5093156403655		
91	16032	1497115762	0.073824179292929	0.12906407828283	9.4959753787879	9.4971551792926		
92	16032	1497115763	0.073421556122449	0.13062021683673	9.5142697704082	9.5154711549625		
93	16032	1497115764	0.076191603535354	0.13044507575758	9.5114820075758	9.5127047791944		
94	16032	1497115765	0.073824179292929	0.12689393939394	9.5034327651515	9.5045861722748		
95	16032	1497115766	0.070273042929293	0.13024779040404	9.5030776515152	9.5042490075992		
96	16032	1497115767	0.067708333333333	0.12827493686869	9.5037484217172	9.5048724144783		
97	16032	1497115768	0.070556640625	0.1279296875	9.5074055989583	9.5085449204254		
98	16032	1497115769	0.069681186868687	0.12965593434343	9.5018150252525	9.5029698188068		
99	16032	1497115770	0.066919191919192	0.13064236111111	9.5024463383838	9.5035964330802		
100	16032	1497115771	0.069078947368421	0.12849506578947	9.5017269736842	9.5028613961151		
101	16032	1497115772	0.067171391752577	0.12878543814433	9.4983891752577	9.4995160049205		
102	16032	1497115773	0.068050986842105	0.12890625	9.5043174342105	9.5054485759632		
103	16032	1497115774	0.066970038659794	0.12657055412371	9.5024162371134	9.5035108026977		
104	16032	1497115775	0.066365979381443	0.12838273195876	9.5044297680412	9.505542605061		
105	16032	1497115776	0.068256578947368	0.13075657894737	9.4955180921053	9.4966804207011		
106	16032	1497115777	0.066611842105263	0.12911184210526	9.4981085526316	9.4992350975031		
107	16032	1497115778	0.066567332474227	0.12717461340206	9.4999597293814	9.501060147603		
108	16032	1497115779	0.065848214285714	0.12663424744898	9.505221619898	9.5063087064893		
109	16032	1497115780	0.065378289473684	0.12561677631579	9.4960526315789	9.4971219551381		
110	16032	1497115781	0.064551767676768	0.12649936868687	9.5000394570707	9.5011144473361		
111	16032	1497115782	0.066130050505051	0.12788036616162	9.5022490530303	9.5033539037431		
112	16032	1497115783	0.064151095360825	0.12616784793814	9.5019329896907	9.5030007800818		
113	16032	1497115784	0.067442602040816	0.12683354591837	9.503587372449	9.5046871463634		
114	16032	1497115785	0.0662841796875	0.12691243489583	9.4921468098958	9.493240840517		
115	16032	1497115786	0.064253826530612	0.12683354591837	9.5015146683673	9.5025942333351		
116	16032	1497115787	0.064553801546392	0.12616784793814	9.496456185567	9.4975281592777		
117	16032	1497115788	0.062418619791667	0.1248779296875	9.5027262369792	9.5037660006331		
118	16032	1497115789	0.068318684895833	0.1273193359375	9.49755859375	9.4986738739797		
119	16032	1497115790	0.06640625	0.125	9.4974506578947	9.4985196218215		
120	16032	1497115791	0.067243303571429	0.12663424744898	9.4971699617347	9.4982672778682		
121	16032	1497115792	0.063928091397849	0.12840221774194	9.4992859543011	9.5003833100451		
122	16032	1497115793	0.06413810483871	0.12777217741935	9.4989499327957	9.5000407424982		
123	16032	1497115794	0.063547036082474	0.12757731958763	9.4928721005155	9.4939589050949		
124	16032	1497115795	0.063655931122449	0.12822863520408	9.4899952168367	9.4910914064116		
125	16032	1497115796	0.065234375	0.1263671875	9.4964453125	9.4975263652679		
126	16032	1497115797	0.063435872395833	0.12691243489583	9.5024007161458	9.5034750220548		
127	16032	1497115798	0.063622007978723	0.12512466755319	9.4987948803191	9.4998469995203		
128	16032	1497115799	0.065877278645833	0.1236572265625	9.4972330729167	9.498281459791		
129	16032	1497115800	0.065143623737374	0.12551294191919	9.4956597222222	9.496725637906		
130	16032	1497115801	0.065266927083333	0.12528483072917	9.4962972005208	9.4973626052031		
131	16032	1497115802	0.064755154639175	0.12475837628866	9.4981475515464	9.4992007452583		
132	16032	1497115803	0.067498319892473	0.12567204301075	9.4933215725806	9.4944107702236		
133	16032	1497115804	0.064652423469388	0.12503985969388	9.5019132653061	9.5029694529006		
134	16032	1497115805	0.066080729166667	0.12752278645833	9.4978841145833	9.4989873002227		
135	16032	1497115806	0.065172697368421	0.12438322368421	9.4999177631579	9.5009717572428		
136	16032	1497115807	0.065157860824742	0.12717461340206	9.4981475515464	9.4992372922367		
137	16032	1497115808	0.064956507731959	0.12576514175258	9.4942815721649	9.495350100286		
138	16032	1497115809	0.067775451030928	0.12435567010309	9.4954896907216	9.4965609675575		
139	16032	1497115810	0.067097981770833	0.12569173177083	9.5000813802083	9.501167035091		
140	16032	1497115811	0.064249674479167	0.12569173177083	9.4976399739583	9.4987018933839		
141	16032	1497115812	0.064352448453608	0.12616784793814	9.4951272551546	9.49619845093		
142	16032	1497115813	0.065877278645833	0.12630208333333	9.5008138020833	9.5018946206839		
143	16032	1497115814	0.067171391752577	0.12596649484536	9.4966575386598	9.4977451563427		
144	16032	1497115815	0.065340909090909	0.12531565656566	9.4985006313131	9.4995654358714		
145	16032	1497115816	0.063414228723404	0.12574800531915	9.4987533244681	9.4998128715191		
146	16032	1497115817	0.0650634765625	0.12752278645833	9.4938151041667	9.4949068458138		
147	16032	1497115818	0.063939144736842	0.12253289473684	9.4982730263158	9.4992928500338		
148	16032	1497115819	0.064249674479167	0.12589518229167	9.4939371744792	9.4950030832138		
149	16032	1497115820	0.064956507731959	0.12576514175258	9.4973824097938	9.4984518685198		
150	16032	1497115821	0.0673828125	0.12578125	9.49	9.4910867463008		
151	16032	1497115822	0.063959911616162	0.12551294191919	9.4997632575758	9.5008227961823		
152	16032	1497115823	0.064749053030303	0.12728851010101	9.4945549242424	9.4956432046618		
153	16032	1497115824	0.064453125	0.12364477040816	9.4982860331633	9.4993235987676		
154	16032	1497115825	0.066028225806452	0.12651209677419	9.5011760752688	9.5022604798614		
155	16032	1497115826	0.064956507731959	0.12355025773196	9.4940802190722	9.495120064872		
156	16032	1497115827	0.8103125	0.82921875	9.488046875	9.6523847992866		
157	16032	1497115828	1.6947428385417	1.9892171223958	9.589599609375	10.040224933507		
158	16032	1497115829	0.4808984375	1.1044140625	8.46875	8.6061881023107		
159	16032	1497115830	0.6710546875	2.35046875	9.2232421875	9.5802549994361		
160	16032	1497115831	0.5684765625	2.0546484375	9.1784765625	9.4580416166304		
161	16032	1497115832	0.543671875	1.9196484375	9.0678125	9.3127053744641		
162	16032	1497115833	0.40890625	2.533515625	8.882109375	9.2626259690805		
163	16032	1497115834	0.76733896683673	2.0735012755102	9.1668128188776	9.4563477404583		
164	16032	1497115835	0.363125	2.205078125	9.01671875	9.2950250287408		
165	16032	1497115836	0.73026945153061	2.1803651147959	9.038743622449	9.3280391867368		
166	16032	1497115837	0.69168244949495	1.8421717171717	9.1564472853535	9.3751237694181		
167	16032	1497115838	0.90190972222222	1.5890546085859	9.1992582070707	9.3805419237126		
168	16032	1497115839	0.31336805555556	1.1728614267677	9.3819839015152	9.4661264693862		
169	16032	1497115840	0.55930397727273	0.55255681818182	9.3614662247475	9.4103389732186		
170	16032	1497115841	0.64220328282828	1.1567234848485	9.8116319444444	9.9485681362851		
171	16032	1497115842	0.976328125	0.9410546875	9.1337109375	9.2731596354303		
172	16032	1497115843	1.04109375	1.0553515625	9.3903515625	9.5563490694884		
173	16032	1497115844	0.381796875	0.8494921875	9.30265625	9.3690193681198		
174	16032	1497115845	0.87259311868687	1.0752840909091	9.3790246212121	9.4934075551462		
175	16032	1497115846	0.52596275252525	1.1101641414141	9.2596275252525	9.342397402599		
176	16032	1497115847	0.78847064393939	0.98476957070707	9.3375946969697	9.4241568925651		
177	16032	1497115848	0.57	1.02859375	9.343046875	9.4175742389255		
178	16032	1497115849	0.59923453282828	1.0316840277778	9.3174715909091	9.3946072727313		
179	16032	1497115850	0.3361328125	0.63484375	9.4549609375	9.4911178251786		
180	16032	1497115851	1.293515625	0.93140625	9.52671875	9.6865780287476		
181	16032	1497115852	1.5630523989899	0.85136521464646	8.7849589646465	9.0475776630075		
182	16032	1497115853	1.84125	1.78234375	9.610546875	10.097355303242		
183	16032	1497115854	0.74893465909091	1.0817945075758	9.3770517676768	9.5287082761619		
184	16032	1497115855	0.49359375	0.625625	9.3993359375	9.4354460924468		
185	16032	1497115856	0.5592041015625	0.78564453125	9.3538411458333	9.4040715962041		
186	16032	1497115857	0.5686158459596	0.79541508838384	9.3898358585859	9.4419579177513		
187	16032	1497115858	0.61722695707071	0.81459122474747	9.3544823232323	9.4105815041972		
188	16032	1497115859	0.61876578282828	0.87791982323232	9.3867582070707	9.4494263412047		
189	16032	1497115860	0.6438671875	0.880234375	9.339765625	9.4045004801878		
190	16032	1497115861	0.6381640625	0.9222265625	9.3494921875	9.4177187702123		
191	16032	1497115862	0.64516256313131	0.95916193181818	9.3559027777778	9.4283875862261		
192	16032	1497115863	0.66470025510204	0.95368303571429	9.3419563137755	9.4144760907064		
193	16032	1497115864	0.6745455994898	0.97357302295918	9.3378109056122	9.4128053317187		
194	16032	1497115865	0.69073547979798	0.99305555555556	9.3177083333333	9.3967607399637		
195	16032	1497115866	0.69073547979798	0.99680397727273	9.3381470959596	9.4207380250704		
196	16032	1497115867	0.69078125	1.038515625	9.328046875	9.4115717098255		
197	16032	1497115868	0.6950306056701	1.0589159149485	9.3226884664948	9.408484008785		
198	16032	1497115869	0.661484375	1.0667578125	9.3276171875	9.4119806089244		
199	16032	1497115870	0.69779459635417	1.1144612630208	9.3092854817708	9.4018499235492		
200	16032	1497115871	0.72727272727273	1.1304056186869	9.3055950126263	9.4030078700549		
201	16032	1497115872	0.67859375	1.1251171875	9.3174609375	9.4120143517782		
202	16032	1497115873	0.71732954545455	1.1657196969697	9.3026357323232	9.4034125365832		
203	16032	1497115874	0.70904356060606	1.1918797348485	9.2920612373737	9.395304832217		
204	16032	1497115875	0.658046875	1.1923828125	9.3044140625	9.4040261206864		
205	16032	1497115876	0.69878472222222	1.2257339015152	9.2827888257576	9.3900486790349		
206	16032	1497115877	0.72484853316327	1.2444196428571	9.2795758928571	9.3910951689656		
207	16032	1497115878	1.0056378865979	1.2686855670103	9.4172036082474	9.5712864888159		
208	16032	1497115879	0.8514453125	1.9328125	9.04546875	9.3221182746233		
209	16032	1497115880	0.4808274872449	3.8025749362245	7.9599011479592	8.8905089973889		
210	16032	1497115881	2.6514362373737	1.5506234217172	9.0051294191919	9.7971034396572		
211	16032	1497115882	1.1003543814433	0.43456024484536	9.1622100515464	9.3235048993409		
212	16032	1497115883	0.076610331632653	0.13540338010204	9.4849330357143	9.4862240500801		
213	16032	1497115884	0.078511332417582	0.13345638736264	9.4875085851648	9.4887836134971		
214	16032	1497115885	0.078789893617021	0.13447473404255	9.4907746010638	9.4920684518681		
215	16032	1497115886	0.078849871134021	0.13563144329897	9.4864690721649	9.4877837547703		
216	16032	1497115887	0.076411033163265	0.13480548469388	9.4882413903061	9.4895200061887		
217	16032	1497115888	0.077239046391753	0.1352287371134	9.4895296391753	9.490820889951		
218	16032	1497115889	0.08125	0.135546875	9.4951171875	9.49644767982		
219	16032	1497115890	0.076411033163265	0.13679846938776	9.4875637755102	9.4888727819148		
220	16032	1497115891	0.077440399484536	0.13784632731959	9.4925902061856	9.4939213552308		
221	16032	1497115892	0.078536184210526	0.13898026315789	9.49296875	9.4943263179616		
222	16032	1497115893	0.080259342783505	0.13663820876289	9.4926707474227	9.4940108880119		
223	16032	1497115894	0.078648518041237	0.13663820876289	9.491100193299	9.4924228460984		
224	16032	1497115895	0.078898111979167	0.13484700520833	9.4962972005208	9.497597018079		
225	16032	1497115896	0.079799107142857	0.13679846938776	9.4911910076531	9.4925319562925		
226	16032	1497115897	0.080137310606061	0.13577178030303	9.4956597222222	9.4969814341614		
227	16032	1497115898	0.076891447368421	0.13692434210526	9.4914884868421	9.4928026016171		
228	16032	1497115899	0.078648518041237	0.13502738402062	9.495368878866	9.4966696055055		
229	16032	1497115900	0.080057989690722	0.13784632731959	9.4894088273196	9.4907607433492		
230	16032	1497115901	0.076586174242424	0.13794191919192	9.4902935606061	9.4916203548038		
231	16032	1497115902	0.080309139784946	0.13575268817204	9.4927755376344	9.4941006329509		
232	16032	1497115903	1.145390625	2.01203125	9.0506640625	9.5450210376031		
233	16032	1497115904	1.0293572809278	4.981193621134	7.5609697164948	9.1217518666209		
234	16032	1497115905	0.9205213490099	1.8961169554455	8.9521194306931	9.4734247313862		
235	16032	1497115906	0.27061855670103	0.26985341494845	9.5138128221649	9.5314820400399		
236	16032	1497115907	0.083347486413043	0.13446841032609	9.5008491847826	9.5021876317815		
237	16032	1497115908	0.081649116847826	0.13493546195652	9.4980893342391	9.4994126749396		
238	16032	1497115909	0.082071520618557	0.13603414948454	9.4923888530928	9.4937338554402		
239	16032	1497115910	0.083480992268041	0.13341655927835	9.4942413015464	9.4955611337642		
240	16032	1497115911	0.08166881443299	0.13442332474227	9.4896101804124	9.4909272307569		
241	16032	1497115912	0.0821533203125	0.13444010416667	9.4923502604167	9.4936737478006		
242	16032	1497115913	0.082589285714286	0.1344068877551	9.4882413903061	9.48956820608		
243	16032	1497115914	0.083984375	0.1338513962766	9.4969664228723	9.4982971712841		
244	16032	1497115915	0.081003289473684	0.13404605263158	9.4919819078947	9.4932881481577		
245	16032	1497115916	0.079252577319588	0.13442332474227	9.493274806701	9.49457052028		
246	16032	1497115917	0.079655283505155	0.13442332474227	9.4898518041237	9.4911507014217		
247	16032	1497115918	0.079915364583333	0.13566080729167	9.4904378255208	9.4917601673656		
248	16032	1497115919	0.080322265625	0.13606770833333	9.4914957682292	9.4928246515509		
249	16032	1497115920	0.082110164141414	0.13222064393939	9.4890703914141	9.4903607685329		
250	16032	1497115921	0.081620065789474	0.13363486842105	9.4892269736842	9.4905337825096		
251	16032	1497115922	0.079799107142857	0.13241390306122	9.4904735331633	9.4917487111369		
252	16032	1497115923	0.083187181122449	0.13520408163265	9.4956951530612	9.4970348358405		
253	16032	1497115924	0.080309139784946	0.1349126344086	9.492439516129	9.4937530979246		
254	16032	1497115925	0.079856636597938	0.13482603092784	9.4934761597938	9.4947872075428		
255	16032	1497115926	0.085023271276596	0.1338513962766	9.4871592420213	9.4884989496519		
256	16032	1497115927	0.082560221354167	0.13444010416667	9.4961344401042	9.4974595887039		
257	16032	1497115928	0.082114361702128	0.13489029255319	9.4874501329787	9.4887802193922		
258	16032	1497115929	0.082589285714286	0.13221460459184	9.4939014668367	9.4951957795201		
259	16032	1497115930	0.083767361111111	0.13216145833333	9.4912760416667	9.4925826264914		
260	16032	1497115931	0.083682345360825	0.13361791237113	9.4898518041237	9.4911742187327		
261	16032	1497115932	0.083682345360825	0.13502738402062	9.4949661726804	9.4963099669928		
262	16032	1497115933	0.080259342783505	0.13240979381443	9.4917042525773	9.4929856418498		
263	16032	1497115934	0.081467461340206	0.13200708762887	9.4851401417526	9.4864215219718		
264	16032	1497115935	0.079453930412371	0.13381926546392	9.4947648195876	9.4960559407182		
265	16032	1497115936	0.080460695876289	0.13220844072165	9.4917445231959	9.4930204485663		
266	16032	1497115937	0.081870167525773	0.1328125	9.4879590850515	9.4892569332651		
267	16032	1497115938	0.078648518041237	0.13301385309278	9.4911404639175	9.4924149040407		
268	16032	1497115939	0.079313858695652	0.13068953804348	9.4866253396739	9.4878720141102		
269	16032	1497115940	0.080057989690722	0.13321520618557	9.4937983247423	9.4950846503857		
270	16032	1497115941	0.081825657894737	0.13384046052632	9.4917351973684	9.4930465278957		
271	16032	1497115942	0.079564144736842	0.13384046052632	9.4899259868421	9.4912166231033		
272	16032	1497115943	0.077713815789474	0.13137335526316	9.4967105263158	9.4979502822572		
273	16032	1497115944	0.079453930412371	0.13200708762887	9.4851401417526	9.4864036539143		
274	16032	1497115945	0.077788978494624	0.1317624327957	9.4913474462366	9.4925934098476		
275	16032	1497115946	0.079998405612245	0.13261320153061	9.4907126913265	9.4919922153926		
276	16032	1497115947	0.080334595959596	0.13261521464646	9.4950284090909	9.4963081060969		
277	16032	1497115948	0.078464673913043	0.1332370923913	9.494480298913	9.4957532146443		
278	16032	1497115949	0.078040081521739	0.13302479619565	9.4917629076087	9.4930318504109		
279	16032	1497115950	0.081208881578947	0.13157894736842	9.490625	9.491899602443		
280	16032	1497115951	0.076480263157895	0.13219572368421	9.4916940789474	9.4929351042473		
281	16032	1497115952	0.077750997340426	0.13322805851064	9.4873670212766	9.4886367207027		
282	16032	1497115953	0.077998991935484	0.13113239247312	9.4878612231183	9.4891026631254		
283	16032	1497115954	0.075880984042553	0.13239694148936	9.4916888297872	9.4929315736603		
284	16032	1497115955	0.077677408854167	0.1297607421875	9.4897867838542	9.4910044847433		
285	16032	1497115956	0.078582114361702	0.13322805851064	9.4946808510638	9.4959552585929		
286	16032	1497115957	0.079259072580645	0.13260248655914	9.4856770833333	9.4869485081244		
287	16032	1497115958	0.076634987113402	0.13120167525773	9.4939191365979	9.4951502302722		
288	16032	1497115959	0.077606823979592	0.13201530612245	9.4903938137755	9.4916477632714		
289	16032	1497115960	0.078404017857143	0.13181600765306	9.4913504464286	9.4926033545216		
290	16032	1497115961	0.079305013020833	0.13199869791667	9.4912109375	9.4924760336408		
291	16032	1497115962	0.077843105670103	0.13220844072165	9.4935164304124	9.4947696436		
292	16032	1497115963	0.080939180107527	0.13239247311828	9.4910114247312	9.4922952946658		
293	16032	1497115964	0.077508223684211	0.13322368421053	9.4908305921053	9.4920963192075		
294	16032	1497115965	0.075067934782609	0.13260020380435	9.4862856657609	9.4875240558958		
295	16032	1497115966	0.077403192934783	0.13302479619565	9.4873896059783	9.4886508597929		
296	16032	1497115967	0.079150883838384	0.1328125	9.495146780303	9.4964218423562		
297	16032	1497115968	0.076919880319149	0.1317736037234	9.4888214760638	9.4900640009367		
298	16032	1497115969	0.078694661458333	0.13138834635417	9.4876302083333	9.4888833997487		
299	16032	1497115970	0.0791015625	0.1334228515625	9.4889729817708	9.4902584530744		
300	16032	1497115971	0.076836340206186	0.1303962628866	9.488643685567	9.4898663673743		
301	16032	1497115972	0.0784912109375	0.13118489583333	9.4889729817708	9.4902177547408		
302	16032	1497115973	0.07601243622449	0.13101881377551	9.4935825892857	9.4948080716974		
303	16032	1497115974	0.079051224226804	0.13180573453608	9.4888450386598	9.4901035215845		
304	16032	1497115975	0.080375339673913	0.13175101902174	9.4911684782609	9.4924413019316		
305	16032	1497115976	0.076836340206186	0.13321520618557	9.4900934278351	9.4913532583445		
306	16032	1497115977	0.078789893617021	0.13509807180851	9.48828125	9.4895846336127		
307	16032	1497115978	0.077572601010101	0.13340435606061	9.4914772727273	9.4927481540664		
308	16032	1497115979	0.081075465425532	0.13073470744681	9.4849567819149	9.4862205754029		
309	16032	1497115980	1.5182023195876	0.85707957474227	9.8290512242268	10.283330824834		
310	16032	1497115981	7.039733270202	1.7035195707071	4.7436868686869	9.1955060093737		
311	16032	1497115982	0.9069140625	3.6012109375	8.3109375	9.3768392424586		
312	16032	1497115983	0.29703608247423	4.6689755154639	7.9247342139175	9.2091865126657		
313	16032	1497115984	0.26883951822917	4.5316569010417	7.9866536458333	9.1872475369927		
314	16032	1497115985	1.737962372449	3.6613919005102	8.2504384566327	9.578589129596		
315	16032	1497115986	3.2934375	4.751796875	7.8048828125	10.58980019829		
316	16032	1497115987	1.7352609536082	2.7458521262887	8.7667525773196	9.4103343253927		
317	16032	1497115988	2.0741398358586	2.6286695075758	8.6956676136364	9.3365036017109		
318	16032	1497115989	2.4895296391753	2.7277706185567	8.5406330541237	9.3059216705752		
319	16032	1497115990	2.5038265306122	2.7357302295918	8.5360331632653	9.3069178565666		
320	16032	1497115991	2.5156661184211	2.7450246710526	8.5296463815789	9.3070301054002		
321	16032	1497115992	2.5170849116162	2.7497238005051	8.5292376893939	9.3083641073618		
322	16032	1497115993	2.5176788015464	2.7553962628866	8.5210615335052	9.3026945691863		
323	16032	1497115994	2.5129523026316	2.7599506578947	8.5184621710526	9.3004156624544		
324	16032	1497115995	2.5145886479592	2.7606823979592	8.5258290816327	9.3078127001429		
325	16032	1497115996	2.5115991709184	2.7632732780612	8.5220822704082	9.3043512073017		
326	16032	1497115997	2.5131935586735	2.7624760841837	8.5219228316327	9.3043796360142		
327	16032	1497115998	2.5131022135417	2.760986328125	8.5211588541667	9.3032118881098		
328	16032	1497115999	2.558046875	2.7881640625	8.4951953125	9.3007154778542		
329	16032	1497116000	2.6196037371134	2.8071037371134	8.4695956829897	9.2995081552781		
330	16032	1497116001	2.6177164713542	2.798095703125	8.4636637369792	9.2906968084356		
331	16032	1497116002	2.6326904296875	2.794189453125	8.4713134765625	9.3007165637265		
332	16032	1497116003	2.615872130102	2.7975526147959	8.475924744898	9.3011690855598		
333	16032	1497116004	2.6217041015625	2.7970377604167	8.474853515625	9.3016578247361		
334	16032	1497116005	2.6128785438144	2.8060969716495	8.4714481314433	9.2987997039185		
335	16032	1497116006	2.6100193298969	2.8011034149485	8.4782941365979	9.3027280114421		
336	16032	1497116007	2.6153782894737	2.8018092105263	8.4772203947368	9.3034767382116		
337	16032	1497116008	2.6165098852041	2.7974728954082	8.4713807397959	9.2971640280386		
338	16032	1497116009	2.6094148596939	2.7800143494898	8.4874441964286	9.3046282407568		
339	16032	1497116010	2.6131167763158	2.7939555921053	8.4842516447368	9.3069034008661		
340	16032	1497116011	2.6231072809278	2.7898679123711	8.4786968427835	9.3034112652536		
341	16032	1497116012	2.6105428479381	2.7946198453608	8.4803479381443	9.3028835910736		
342	16032	1497116013	2.6132007087629	2.7908344072165	8.4848179768041	9.3070394179827		
343	16032	1497116014	2.3771746134021	2.6272954252577	8.5990657216495	9.3086317088048		
344	16032	1497116015	2.3178042763158	2.5775082236842	8.6479851973684	9.3169584378253		
345	16032	1497116016	2.2823262117347	2.547512755102	8.6650191326531	9.3157953080217		
346	16032	1497116017	2.2704387626263	2.5527146464646	8.6674163510101	9.3165135676217		
347	16032	1497116018	2.2803515625	2.5551171875	8.6651953125	9.3203232226929		
348	16032	1497116019	2.4035773026316	2.590625	8.6112664473684	9.3089499961869		
349	16032	1497116020	2.396165497449	2.57421875	8.619140625	9.3097181314145		
350	16032	1497116021	2.3650390625	2.570078125	8.6365234375	9.3164515635848		
351	16032	1497116022	2.3710148358586	2.5738241792929	8.6319444444444	9.3143946553384		
352	16032	1497116023	2.3722737630208	2.5733235677083	8.6305745442708	9.3133090480979		
353	16032	1497116024	2.3690185546875	2.5751953125	8.6310221354167	9.3134181629585		
354	16032	1497116025	2.3676030585106	2.5741356382979	8.6318982712766	9.3135617136249		
355	16032	1497116026	2.3676215277778	2.5705886994949	8.6331676136364	9.3137676695716		
356	16032	1497116027	2.3725685586735	2.5688376913265	8.6384327168367	9.319439792628		
357	16032	1497116028	2.3689811862245	2.5730628188776	8.6220902423469	9.3045510195934		
358	16032	1497116029	2.3814697265625	2.5747884114583	8.6295979817708	9.3151838693897		
359	16032	1497116030	2.3847064393939	2.573547979798	8.629577020202	9.315624947672		
360	16032	1497116031	2.386474609375	2.5704752604167	8.6322428385417	9.3176790461241		
361	16032	1497116032	2.3820551658163	2.5708705357143	8.6259964923469	9.3108774451875		
362	16032	1497116033	2.3832859848485	2.5712200126263	8.6246843434343	9.3100782771813		
363	16032	1497116034	2.3840206185567	2.5704333118557	8.6256846005155	9.3109615748954		
364	16032	1497116035	2.3814174107143	2.5658880739796	8.6307397959184	9.3137306059835		
365	16032	1497116036	2.3505045572917	2.6642252604167	8.6061197916667	9.3329994958543		
366	16032	1497116037	5.2707938762626	2.2879971590909	6.9090119949495	9.9733272946307		
367	16032	1497116038	2.1072443181818	2.2466066919192	8.7908380681818	9.6604390136612		
368	16032	1497116039	3.3843271683673	0.64716198979592	9.0208864795918	9.6878430526162		
369	16032	1497116040	3.518443943299	0.66780766752577	8.8035196520619	9.5111371639444		
370	16032	1497116041	3.2275390625	0.514140625	9.023515625	9.6058186880762		
371	16032	1497116042	2.7979296875	0.231640625	8.939765625	9.3738186964607		
372	16032	1497116043	2.6594065656566	0.18083175505051	9.1219618055556	9.5042612845709		
373	16032	1497116044	2.6951090494792	0.20869954427083	9.0926920572917	9.4862624139826		
374	16032	1497116045	2.6994949494949	0.21227904040404	9.0888178661616	9.4837954052448		
375	16032	1497116046	2.7039453125	0.2584765625	9.1027734375	9.4995764377646		
376	16032	1497116047	2.7087226159794	0.26864529639175	9.0850112757732	9.4842051039764		
377	16032	1497116048	2.5225207270408	0.67211415816327	9.0217633928571	9.4427708445603		
378	16032	1497116049	1.6316043814433	2.031612435567	10.081910438144	10.6666917758		
379	16032	1497116050	3.99390625	3.088984375	7.7910546875	9.7495034064845		
380	16032	1497116051	6.7753125	6.7660546875	3.7038671875	10.403185742636		
381	16032	1497116052	7.0909090909091	6.2616792929293	3.0986821338384	10.01327746649		
382	16032	1497116053	3.5676020408163	2.3485730229592	7.8031329719388	9.5571910930648		
383	16032	1497116054	0.483203125	1.9705078125	9.0804296875	9.3373234967451		
384	16032	1497116055	0.41796875	1.5923828125	9.1989453125	9.3581026756498		
385	16032	1497116056	0.58068970959596	0.2522095959596	9.4253866792929	9.4550334270724		
386	16032	1497116057	0.6407421875	0.19734375	9.4725	9.5030413926058		
387	16032	1497116058	0.679375	0.19	9.4106640625	9.438303436465		
388	16032	1497116059	1.3935053661616	0.6328125	9.4035669191919	9.6091510972892		
389	16032	1497116060	1.6496484375	0.44359375	9.41125	9.5976873609771		
390	16032	1497116061	0.62015625	0.34078125	9.505546875	9.5414878410507		
391	16032	1497116062	1.1969866071429	0.29783163265306	9.3568638392857	9.444641766597		
392	16032	1497116063	0.564765625	0.4015234375	9.5001953125	9.5328516962632		
393	16032	1497116064	0.71070075757576	0.40467171717172	9.4525331439394	9.4889231367397		
394	16032	1497116065	0.484375	0.38176546391753	9.6313224871134	9.6623228365292		
395	16032	1497116066	1.5103515625	0.5724609375	9.29296875	9.4403385300492		
396	16032	1497116067	0.66642992424242	0.36119002525253	9.5196496212121	9.5607310591701		
397	16032	1497116068	0.67763573232323	0.29995265151515	9.4968828914141	9.532097406046		
398	16032	1497116069	0.933125	0.4384375	9.41765625	9.4914652283953		
399	16032	1497116070	1.2078125	0.7468359375	9.29203125	9.4269595188095		
400	16032	1497116071	0.5518359375	0.87515625	9.477265625	9.5614288746769		
401	16032	1497116072	1.446796875	1.2755078125	9.6459375	9.9039253337131		
402	16032	1497116073	0.82256765463918	0.78741140463918	9.1454172036082	9.2685560229945		
403	16032	1497116074	0.851328125	0.9291015625	9.5552734375	9.67237609827		
404	16032	1497116075	0.5754296875	0.7440625	9.331015625	9.4011597471609		
405	16032	1497116076	1.1769140625	0.3251953125	9.2362890625	9.3559906883596		
406	16032	1497116077	1.235625	0.4059765625	9.6105078125	9.7281606376881		
407	16032	1497116078	1.412578125	0.8770703125	9.2284765625	9.4302461639128		
408	16032	1497116079	0.558046875	1.2630078125	9.3269140625	9.4693902432661	s	e
409	16032	1497116080	0.6991796875	0.74625	9.3291796875	9.4052279699488		
410	16032	1497116081	0.73473011363636	0.44345801767677	9.4614504419192	9.5099136089451		
411	16032	1497116082	1.036875	0.749296875	9.384765625	9.5456591185582		
412	16032	1497116083	0.8624609375	0.614375	9.2327734375	9.3329546181669		
413	16032	1497116084	1.5739453125	0.955	9.6155078125	9.9558635229718		
414	16032	1497116085	0.98150510204082	0.31983418367347	9.4542410714286	9.5429035797175		
415	16032	1497116086	0.61416720360825	0.2406974871134	9.4295666881443	9.4650550374245		
416	16032	1497116087	0.21251578282828	0.4676452020202	9.4979482323232	9.5152230803634		
417	16032	1497116088	0.1133203125	0.5421484375	9.5013671875	9.5179418487784		
418	16032	1497116089	0.53129027061856	0.54892880154639	9.4946037371134	9.5331770517157		
419	16032	1497116090	0.83689413265306	0.61989795918367	9.4923867984694	9.5497032073359		
420	16032	1497116091	0.67716224747475	0.66197127525253	9.5023279671717	9.5498341410617		
421	16032	1497116092	0.6450836489899	0.67704387626263	9.4977509469697	9.5446575691319		
422	16032	1497116093	0.62991301546392	0.68613079896907	9.4992348582474	9.5452071351656		
423	16032	1497116094	0.61063762626263	0.68201546717172	9.5066682449495	9.5509230531123		
424	16032	1497116095	0.58357007575758	0.70340119949495	9.5097064393939	9.5537535520783		
425	16032	1497116096	0.90842927631579	0.63310032894737	9.6006990131579	9.693083788248		
426	16032	1497116097	1.0646524234694	0.93606505102041	9.5614636479592	9.7258488468736		
427	16032	1497116098	1.6059307795699	1.2142977150538	9.3001092069892	9.610795291402		
428	16032	1497116099	2.2045059974747	0.8186553030303	9.1678503787879	9.4878129271363		
429	16032	1497116100	2.1130859375	0.7801953125	9.3736328125	9.6606512381534		
430	16032	1497116101	2.1514756944444	0.88754734848485	9.3616240530303	9.6532749639241		
431	16032	1497116102	1.8836016414141	0.77209595959596	9.1636679292929	9.4048669134523		
432	16032	1497116103	0.99685108418367	0.9699856505102	9.3222257653061	9.4344159379573		
433	16032	1497116104	1.195546875	0.644921875	9.297265625	9.3975313872663		
434	16032	1497116105	1.1139125631313	0.84607796717172	9.2751736111111	9.3826247020456		
435	16032	1497116106	1.5767045454545	1.0041824494949	9.2025331439394	9.3976201209913		
436	16032	1497116107	1.0316445707071	0.97948232323232	9.2505523989899	9.3622784845623		
437	16032	1497116108	0.966953125	0.6317578125	9.4190625	9.4968833382532		
438	16032	1497116109	1.0787890625	0.7791015625	9.2331640625	9.3331393477779		
439	16032	1497116110	1.30546875	1.056328125	9.184765625	9.347681850889		
440	16032	1497116111	1.290377869898	1.130859375	9.2231345663265	9.3915826933916		
441	16032	1497116112	1.254577020202	0.84741950757576	9.2139756944444	9.3396596345574		
442	16032	1497116113	1.162444760101	0.65786773989899	9.245422979798	9.349287658402		
443	16032	1497116114	1.119765625	0.6830078125	9.23828125	9.3383047078643		
444	16032	1497116115	0.8644140625	0.45078125	9.29296875	9.3515634795014		
445	16032	1497116116	1.1075813137755	0.20260682397959	9.3799426020408	9.4521988698422		
446	16032	1497116117	0.6716796875	0.660390625	9.295078125	9.3489558694374		
447	16032	1497116118	0.9172265625	0.6295703125	9.221171875	9.2945169196428		
448	16032	1497116119	0.759375	0.3987890625	9.4423828125	9.4924041810554		
449	16032	1497116120	1.4007654671717	0.86746369949495	9.1088226010101	9.3041423697855		
450	16032	1497116121	0.78192077020202	1.2009154040404	9.1756628787879	9.3181489291846		
451	16032	1497116122	0.88015625	0.7021875	9.351015625	9.4334380818526		
452	16032	1497116123	1.0058984375	0.693203125	9.3398828125	9.4257860651491		
453	16032	1497116124	0.81828125	0.6001953125	9.35625	9.4185676894222		
454	16032	1497116125	0.599921875	0.4660546875	9.3705859375	9.4084577943858		
455	16032	1497116126	0.7341796875	0.5151171875	9.3579296875	9.404177134023		
456	16032	1497116127	0.75757334183673	0.47074298469388	9.388671875	9.4323249260635		
457	16032	1497116128	1.1489158163265	0.52543048469388	9.3456234056122	9.434529997841		
458	16032	1497116129	0.68578125	0.5	9.413671875	9.455060480878		
459	16032	1497116130	0.85610650510204	0.45180963010204	9.3274075255102	9.3792670483835		
460	16032	1497116131	0.78953598484848	0.46070075757576	9.3490767045455	9.3947550337154		
461	16032	1497116132	0.85801977040816	0.51084183673469	9.37109375	9.4256829997065		
462	16032	1497116133	0.9725	0.5151953125	9.3420703125	9.4082639321329		
463	16032	1497116134	0.73520359848485	0.51467803030303	9.3572443181818	9.402416651624		
464	16032	1497116135	0.69700386597938	0.47040109536082	9.3660196520619	9.4045150884199		
465	16032	1497116136	0.67610012755102	0.54691485969388	9.3859215561224	9.426504393805		
466	16032	1497116137	0.6913671875	0.5655859375	9.399921875	9.4427902238366		
467	16032	1497116138	0.71018016581633	0.54073660714286	9.3530771683673	9.3967696542655		
468	16032	1497116139	0.41434151785714	0.54755261479592	9.3718112244898	9.3992073663193		
469	16032	1497116140	0.3687818877551	0.53535554846939	9.4109135841837	9.435134682325		
470	16032	1497116141	0.60475852272727	0.25157828282828	9.404632260101	9.432156334398		
471	16032	1497116142	0.70432079081633	0.25482302295918	9.4620934311224	9.4947522502611		
472	16032	1497116143	0.88755580357143	0.62452168367347	9.1764588647959	9.2570298324468		
473	16032	1497116144	0.85961174242424	0.14105902777778	9.5269491792929	9.569303802867		
474	16032	1497116145	0.83901515151515	0.092921401515152	9.4146543560606	9.4541234221272		
475	16032	1497116146	1.09734375	0.1258203125	9.37546875	9.4416842319598		
476	16032	1497116147	0.8376171875	0.1085546875	9.4116015625	9.450980704658		
477	16032	1497116148	0.80954071969697	0.14366319444444	9.3863241792929	9.4241395450723		
478	16032	1497116149	0.52963226010101	0.12930082070707	9.4331597222222	9.4532396853157		
479	16032	1497116150	0.1939453125	0.1469921875	9.445625	9.4501635294233		
480	16032	1497116151	0.09421875	0.2203515625	9.4744140625	9.4782068292559		
481	16032	1497116152	0.092036033163265	0.31588807397959	9.4619738520408	9.4684635065298		
482	16032	1497116153	0.13625	0.4241015625	9.4303125	9.4415582759285		
483	16032	1497116154	0.2929296875	0.51546875	9.3930078125	9.4129854458764		
484	16032	1497116155	0.21938131313131	0.51302083333333	9.4566366792929	9.4741969090526		
485	16032	1497116156	0.503828125	0.485	9.4812109375	9.5082792778705		
486	16032	1497116157	0.245234375	0.6460546875	9.4039453125	9.4322774633825		
487	16032	1497116158	1.0091145833333	0.85830965909091	9.3084359217172	9.4120284985587		
488	16032	1497116159	0.99905303030303	0.8549163510101	9.2896148989899	9.3847389049629	s	s
489	16032	1497116160	0.81955516581633	0.8757174744898	9.297193877551	9.3786494314189		
490	16032	1497116161	0.70986128826531	0.88588169642857	9.3159677933673	9.3894991953476		
491	16032	1497116162	0.6199609375	1.2876953125	9.2211328125	9.3357425367785		
492	16032	1497116163	0.66710069444444	1.1145833333333	9.3242582070707	9.4322555857383		
493	16032	1497116164	0.68197601010101	0.50757575757576	9.2974273989899	9.347877482354		
494	16032	1497116165	0.898671875	0.7776953125	9.35	9.4332848046945		
495	16032	1497116166	0.48369039948454	0.89634342783505	9.3074661726804	9.3676410186011		
496	16032	1497116167	0.6298046875	0.7383984375	9.3462890625	9.4045723778795		
497	16032	1497116168	0.71555397727273	0.5971038510101	9.3549558080808	9.4041040228056		
498	16032	1497116169	0.7041796875	0.6220703125	9.357734375	9.4050384714237		
499	16032	1497116170	0.7219921875	0.5566015625	9.3632421875	9.4077451971418		
500	16032	1497116171	0.73130580357143	0.53734853316327	9.3792649872449	9.4237689890517		
501	16032	1497116172	0.79292929292929	0.68880208333333	9.3119081439394	9.3715036711126		
502	16032	1497116173	0.7737890625	0.67203125	9.3364453125	9.3926803422386		
503	16032	1497116174	0.80843592171717	0.63375946969697	9.3412247474747	9.3977315659555		
504	16032	1497116175	0.83109375	0.6356640625	9.3391796875	9.397748376904		
505	16032	1497116176	0.80285395408163	0.6344068877551	9.3376913265306	9.3939006726794		
506	16032	1497116177	0.75256470959596	0.65348800505051	9.3432370580808	9.396576871393		
507	16032	1497116178	0.78104864690722	0.63091978092784	9.3454010953608	9.3993200416688		
508	16032	1497116179	0.92590082908163	0.62990274234694	9.3309550382653	9.3992006287412		
509	16032	1497116180	1.3737643494898	0.64827806122449	9.3026945153061	9.4299533195177	s	d
510	16032	1497116181	1.6325	0.5969921875	9.305078125	9.469717666656		
511	16032	1497116182	1.5634765625	0.524453125	9.309921875	9.4570362243161		
512	16032	1497116183	1.4961734693878	0.56580835459184	9.3095902423469	9.4558187720164		
513	16032	1497116184	1.652890625	0.698203125	9.2811328125	9.4550581979728		
514	16032	1497116185	1.61875	0.768203125	9.265	9.4383474616971		
515	16032	1497116186	1.628984375	0.756953125	9.2553125	9.4333937652932		
516	16032	1497116187	1.2646385732323	0.79040404040404	9.293639520202	9.4188804262805		
517	16032	1497116188	1.1062578914141	0.50694444444444	9.3995028409091	9.4856831939047		
518	16032	1497116189	0.85140467171717	0.63277304292929	9.3727904040404	9.4857306839353		
519	16032	1497116190	0.550625	0.535625	9.356640625	9.3919864369463		
520	16032	1497116191	0.73334911616162	0.70943813131313	9.354521780303	9.414358448313		
521	16032	1497116192	1.2096748737374	0.92065183080808	9.2554056186869	9.3827294212728		
522	16032	1497116193	1.085078125	1.1469921875	9.2323828125	9.3705453959531		
523	16032	1497116194	1.0617578125	1.048828125	9.2759375	9.4006526289461		
524	16032	1497116195	0.974609375	1.0190234375	9.2815625	9.3936554755585		
525	16032	1497116196	0.9250390625	0.98828125	9.305546875	9.4178034958495		
526	16032	1497116197	0.87354008838384	1.0028014520202	9.2900489267677	9.3983337339343		
527	16032	1497116198	0.93663194444444	1.0822679924242	9.2520912247475	9.3729295672386		
528	16032	1497116199	0.57904177295918	1.1315768494898	9.2883450255102	9.3789469154327		
529	16032	1497116200	0.83057133838384	1.0780855429293	9.2643623737374	9.3729098487038		
530	16032	1497116201	0.805859375	0.9660546875	9.2890625	9.3766172888221		
531	16032	1497116202	0.90125	0.73109375	9.3535546875	9.4264439058915		
532	16032	1497116203	0.93963068181818	0.78136837121212	9.2924163510101	9.3745766734053		
533	16032	1497116204	1.0225694444444	0.90577651515152	9.2969144570707	9.4019767302249		
534	16032	1497116205	1.063984375	0.985	9.2748046875	9.3912646614488		
535	16032	1497116206	0.91646938131313	1.0465988005051	9.2849195075758	9.3926105304945		
536	16032	1497116207	0.94276147959184	1.0589524872449	9.2885443239796	9.4015028619874		
537	16032	1497116208	0.93241003787879	0.93410669191919	9.3077256944444	9.4047385075711		
538	16032	1497116209	0.61806441326531	0.80416932397959	9.3555484693878	9.4167835703472		
539	16032	1497116210	0.3730078125	0.767109375	9.3462890625	9.3894520222839		
540	16032	1497116211	0.303671875	0.6809375	9.4037890625	9.4374722544735		
541	16032	1497116212	0.29141422193878	0.85104432397959	9.3696189413265	9.4188788138816		
542	16032	1497116213	0.298359375	0.8276171875	9.360859375	9.4108783092007		
543	16032	1497116214	0.2005859375	0.7876953125	9.395546875	9.4327648231937		
544	16032	1497116215	0.096946022727273	0.73729482323232	9.3755918560606	9.4068170777997		
545	16032	1497116216	0.21552835051546	0.71758215206186	9.4286404639175	9.4602497972111		
546	16032	1497116217	0.27489741161616	0.63190498737374	9.3519176136364	9.3818093336649		
547	16032	1497116218	0.28614267676768	0.66721906565657	9.4365924873737	9.4681858194596		
548	16032	1497116219	0.409765625	0.79734375	9.320390625	9.3712417288454		
549	16032	1497116220	0.45880315721649	0.74073775773196	9.3617106958763	9.4051940013274		
550	16032	1497116221	0.23389175257732	0.703125	9.3738321520619	9.4064328970392		
551	16032	1497116222	0.3034765625	0.7230859375	9.3603515625	9.3975960390248		
552	16032	1497116223	0.21050347222222	0.61991003787879	9.429016729798	9.4550343255629		
553	16032	1497116224	0.40198863636364	0.67388731060606	9.3848248106061	9.4250163239524		
554	16032	1497116225	0.150546875	0.631875	9.3971484375	9.4209734893448		
555	16032	1497116226	0.24657699742268	0.58207152061856	9.424693943299	9.4463305782215		
556	16032	1497116227	0.36046230670103	0.57212467783505	9.4244523195876	9.4490642042873		
557	16032	1497116228	0.4744140625	0.583359375	9.4240234375	9.4554552215647		
558	16032	1497116229	0.436484375	0.48484375	9.4457421875	9.469210553688		
559	16032	1497116230	0.42885890151515	0.52544981060606	9.4561237373737	9.4808963152675		
560	16032	1497116231	0.4905931122449	0.58370535714286	9.4859693877551	9.5171732826832		
561	16032	1497116232	0.15609217171717	0.62551294191919	9.4126420454545	9.436448005263		
562	16032	1497116233	0.66473327020202	0.72115688131313	9.3733428030303	9.4371811583621	s	s
563	16032	1497116234	0.6584375	0.63984375	9.3443359375	9.3936220661692		
564	16032	1497116235	0.637265625	0.581484375	9.360390625	9.4032325938908		
565	16032	1497116236	0.5966015625	0.49859375	9.437890625	9.4708978143211		
566	16032	1497116237	0.43931217783505	0.70207796391753	9.319225193299	9.3585989310645		
567	16032	1497116238	0.69815340909091	1.1713620580808	9.322877209596	9.431602997854		
568	16032	1497116239	0.8505078125	1.0730859375	9.1548828125	9.3028691340617		
569	16032	1497116240	0.99103156887755	0.80839445153061	9.3216677295918	9.4141524803235		
570	16032	1497116241	0.60108901515152	0.61422821969697	9.3684501262626	9.4160522710943		
571	16032	1497116242	0.2706360479798	0.61904198232323	9.3801294191919	9.4108023865852		
572	16032	1497116243	0.321875	0.49265625	9.395390625	9.4160715324946		
573	16032	1497116244	0.1633203125	0.352109375	9.411953125	9.4227058318768		
574	16032	1497116245	0.29214015151515	0.30200441919192	9.4403409090909	9.452351142584		
575	16032	1497116246	0.48429608585859	0.64318970959596	9.4183633207071	9.4760497595099		
576	16032	1497116247	0.5729830994898	0.82720822704082	9.3410395408163	9.4002637547287		
577	16032	1497116248	0.5106139520202	0.46070075757576	9.3653330176768	9.4029107715345		
578	16032	1497116249	0.52738320707071	0.50213068181818	9.3836805555556	9.4252770538846		
579	16032	1497116250	0.28511679292929	0.41425978535354	9.4357638888889	9.4513918155704		
580	16032	1497116251	0.2595091540404	0.45770202020202	9.3847458964646	9.4001096926978		
581	16032	1497116252	0.19823232323232	0.46172664141414	9.4283854166667	9.4424420102837		
582	16032	1497116253	0.21275252525253	0.52473958333333	9.3899936868687	9.4077889016841		
583	16032	1497116254	0.213125	0.5865625	9.3869140625	9.4080957585356		
584	16032	1497116255	0.12484375	0.6770703125	9.373671875	9.399807305915		
585	16032	1497116256	0.13516422193878	0.62611607142857	9.3740035076531	9.3965942779031		
586	16032	1497116257	0.17004145408163	0.51996970663265	9.4029416454082	9.4194185303177		
587	16032	1497116258	0.3982421875	0.5125390625	9.3931640625	9.4222981521578		
588	16032	1497116259	0.85108418367347	0.45874521683673	9.3865194515306	9.4438419302558	s	d
589	16032	1497116260	0.99109375	0.381015625	9.3888671875	9.4594958227678		
590	16032	1497116261	1.005078125	0.3349609375	9.4095703125	9.4701166247236		
591	16032	1497116262	0.8851953125	0.341875	9.41015625	9.4603413529487		
592	16032	1497116263	0.76865433673469	0.34486607142857	9.3970424107143	9.4351737827444		
593	16032	1497116264	0.76822916666667	0.33787089646465	9.3860874368687	9.4250304623149		
594	16032	1497116265	0.7151171875	0.3887890625	9.4	9.4367257419969		
595	16032	1497116266	0.50193339646465	0.36568813131313	9.4037247474747	9.4253599479045		
596	16032	1497116267	0.42375	0.3469140625	9.39109375	9.4077197775971		
597	16032	1497116268	0.36935763888889	0.31924715909091	9.4164693813131	9.4313943466875		
598	16032	1497116269	1.0241948341837	0.40278220663265	9.3756776147959	9.4416822599871		
599	16032	1497116270	0.78647161989796	0.40565210459184	9.3799027423469	9.4231022304724		
600	16032	1497116271	0.57556029040404	0.40723642676768	9.4180476641414	9.4461020896998		
601	16032	1497116272	0.54924242424242	0.32240372474747	9.4198232323232	9.4426508808348		
602	16032	1497116273	0.54221906565657	0.33976483585859	9.396819760101	9.4207011387858		
603	16032	1497116274	0.6558984375	0.31859375	9.388359375	9.4187718717576		
604	16032	1497116275	0.44109375	0.371015625	9.3978515625	9.418915126385		
605	16032	1497116276	0.225859375	0.400546875	9.422734375	9.4362278734882		
606	16032	1497116277	0.2201171875	0.399609375	9.4082421875	9.4210188982302		
607	16032	1497116278	0.22652264030612	0.46265146683673	9.3949298469388	9.4112745586601		
608	16032	1497116279	0.2498828125	0.741796875	9.3618359375	9.3970944822764		
609	16032	1497116280	0.27911931818182	0.88663983585859	9.3638731060606	9.41906509167		
610	16032	1497116281	0.50800978535354	0.85586332070707	9.2987689393939	9.3645504692807		
611	16032	1497116282	0.372421875	0.926875	9.3334765625	9.3925968148461		
612	16032	1497116283	0.31273915816327	0.81891741071429	9.3698182397959	9.4156591602162		
613	16032	1497116284	0.3023828125	0.8418359375	9.330625	9.3786176678835		
614	16032	1497116285	0.32650726010101	0.46283143939394	9.4356849747475	9.457780854458		
615	16032	1497116286	0.307421875	0.298671875	9.4025	9.4152436528657		
616	16032	1497116287	0.3258056640625	0.26603190104167	9.450927734375	9.4630394310293		
617	16032	1497116288	0.16836332070707	0.26826862373737	9.4255050505051	9.4335845873795		
618	16032	1497116289	0.14137468434343	0.23311237373737	9.4152856691919	9.4202384052151		
619	16032	1497116290	0.48171875	0.2433203125	9.42453125	9.4448765452556		
620	16032	1497116291	1.18359375	0.33349116161616	9.3878630050505	9.4715438806809		
621	16032	1497116292	1.1561710858586	0.32934816919192	9.3548768939394	9.436777295756		
622	16032	1497116293	1.1482780612245	0.34841358418367	9.3952487244898	9.4743861523374		
623	16032	1497116294	1.0568000637755	0.37775031887755	9.3867586096939	9.4576016197699		
624	16032	1497116295	1.0114820075758	0.37653882575758	9.3398042929293	9.4077655709162		
625	16032	1497116296	1.0221875	0.3176953125	9.36484375	9.4357436895568		
626	16032	1497116297	0.9165234375	0.3319140625	9.3977734375	9.459207326092		
627	16032	1497116298	0.839609375	0.339140625	9.431875	9.4909407057921		
628	16032	1497116299	0.36828125	0.3191796875	9.4761328125	9.4940613637195		
629	16032	1497116300	0.5040234375	0.339609375	9.3954296875	9.4291154368708		
630	16032	1497116301	0.75686553030303	0.44483901515152	9.4884785353535	9.5492699028601		
631	16032	1497116302	0.3727509469697	0.32630997474747	9.4620817550505	9.4795061468928		
632	16032	1497116303	0.5305078125	0.3514453125	9.3764453125	9.4098022561688		
633	16032	1497116304	0.76455965909091	0.42392676767677	9.4307922979798	9.4930825895491		
634	16032	1497116305	0.51996527777778	0.2399779040404	9.4638573232323	9.4894030868991		
635	16032	1497116306	0.2978125	0.2058203125	9.47875	9.4903666186683		
636	16032	1497116307	0.28390625	0.19296875	9.4653125	9.4748548346503		
637	16032	1497116308	0.4865234375	0.260625	9.5356640625	9.5581860519076		
638	16032	1497116309	0.4475	0.2112109375	9.4762890625	9.4921925175595		
639	16032	1497116310	0.7491796875	0.20859375	9.494296875	9.5292129033854		
640	16032	1497116311	0.9162720959596	0.29778251262626	9.4317392676768	9.4853448210943		
641	16032	1497116312	0.96547506313131	0.33100536616162	9.5078914141414	9.5651168350203		
642	16032	1497116313	0.8862109375	0.331484375	9.494375	9.54397469472		
643	16032	1497116314	0.72901900773196	0.42352609536082	9.492912371134	9.5338917323688		
644	16032	1497116315	0.3516796875	0.446328125	9.4284375	9.4496931842951		
645	16032	1497116316	0.30875157828283	0.44606218434343	9.4445233585859	9.4651107753037		
646	16032	1497116317	0.243515625	0.419140625	9.494140625	9.5106471386825		
647	16032	1497116318	0.30180713383838	0.38261521464646	9.4249526515152	9.4434007273152		
648	16032	1497116319	0.153203125	0.399765625	9.4298828125	9.4425294078017		
649	16032	1497116320	0.173828125	0.4365625	9.4520703125	9.4660248344694		
650	16032	1497116321	0.48563762626263	0.4637389520202	9.5106139520202	9.5396389913277		
651	16032	1497116322	0.51945233585859	0.46859217171717	9.466461489899	9.4965958755579		
652	16032	1497116323	0.20632102272727	0.51767676767677	9.4560053661616	9.4747883071691		
653	16032	1497116324	0.268828125	0.487578125	9.4326171875	9.4530796039256		
654	16032	1497116325	0.272421875	0.4259375	9.3905078125	9.4080143264714		
655	16032	1497116326	0.4315234375	0.403046875	9.4251953125	9.4487002368497		
656	16032	1497116327	0.48394097222222	0.37085700757576	9.4532039141414	9.4784954109029		
657	16032	1497116328	0.44945549242424	0.43840751262626	9.4186000631313	9.445291274305		
658	16032	1497116329	0.46354166666667	0.40688131313131	9.4291351010101	9.4511504082339		
659	16032	1497116330	0.46843434343434	0.44018308080808	9.4301215277778	9.456642198964		
660	16032	1497116331	0.383984375	0.3052734375	9.4159375	9.4347977843377		
661	16032	1497116332	0.35659632731959	0.52653833762887	9.3768524484536	9.4055028120867		
662	16032	1497116333	0.3112890625	0.7241796875	9.37296875	9.4080167033195		
663	16032	1497116334	0.546171875	1.0253125	9.29265625	9.3692008961743		
664	16032	1497116335	0.4701953125	1.0518359375	9.3285546875	9.406181447323		
665	16032	1497116336	0.42684659090909	0.9548216540404	9.3469460227273	9.4091422497691		
666	16032	1497116337	0.4103515625	0.810625	9.3621875	9.4114412553139		
667	16032	1497116338	0.19014362373737	0.67728061868687	9.3808001893939	9.4090311838562		
668	16032	1497116339	0.19833279639175	0.54691527061856	9.4227206829897	9.4432959251965		
669	16032	1497116340	0.1919921875	0.4965234375	9.395859375	9.413394990702		
670	16032	1497116341	0.177265625	0.444921875	9.3969140625	9.4115944360579		
671	16032	1497116342	0.431796875	0.407734375	9.3806640625	9.4043736971815		
672	16032	1497116343	0.45174400252525	0.44740372474747	9.3940183080808	9.4164808850512		
673	16032	1497116344	0.41792929292929	0.4318970959596	9.4001736111111	9.4230989643383		
674	16032	1497116345	0.33	0.42	9.4044140625	9.4210927941519		
675	16032	1497116346	0.34181660353535	0.37511837121212	9.3986742424242	9.4139026402349		
676	16032	1497116347	0.3085546875	0.38875	9.416328125	9.4298558299959		
677	16032	1497116348	0.32279829545455	0.37736742424242	9.3980429292929	9.4116757716118		
678	16032	1497116349	0.31873421717172	0.39484690656566	9.4120107323232	9.4264172223586		
679	16032	1497116350	0.32050978535354	0.38352272727273	9.4011994949495	9.4150302660608		
680	16032	1497116351	0.43312026515152	0.4391571969697	9.3976089015152	9.418754745499		
681	16032	1497116352	0.42511047979798	0.40317234848485	9.3943339646465	9.4130915017084		
682	16032	1497116353	0.19375797193878	0.39114317602041	9.4573102678571	9.4679079849909		
683	16032	1497116354	0.063116776315789	0.53881578947368	9.4303042763158	9.4464471472104		
684	16032	1497116355	0.032236426767677	0.53689236111111	9.4369476010101	9.4523752751564		
685	16032	1497116356	0.10020727040816	0.51434948979592	9.4243064413265	9.4394893981676		
686	16032	1497116357	0.338671875	0.494375	9.456640625	9.4771152423052		
687	16032	1497116358	0.40125	0.4958984375	9.422578125	9.4443409610377		
688	16032	1497116359	0.44946037371134	0.49871134020619	9.4121295103093	9.436473109214		
689	16032	1497116360	0.48946496212121	0.49096433080808	9.4292140151515	9.4558493338517		
690	16032	1497116361	0.43104272959184	0.50031887755102	9.4251833545918	9.4522481068123		
691	16032	1497116362	0.91824494949495	0.61442550505051	9.3873106060606	9.4831545088518		
692	16032	1497116363	0.3968431122449	0.65413743622449	9.4072066326531	9.4443318821676	s	s
693	16032	1497116364	0.3863671875	0.630625	9.379140625	9.4132188353278		
694	16032	1497116365	0.36639835858586	0.59079071969697	9.3889678030303	9.4178711165283		
695	16032	1497116366	0.29892676767677	0.61087436868687	9.3748816287879	9.401781975418		
696	16032	1497116367	0.29783163265306	0.5442044005102	9.3798230229592	9.4028801743043		
697	16032	1497116368	0.31680082070707	0.61126893939394	9.2993607954545	9.3318699960814		
698	16032	1497116369	0.9446484375	0.7106640625	9.453515625	9.5459389518473		
699	16032	1497116370	1.234140625	0.386796875	9.335234375	9.4413027708963		
700	16032	1497116371	0.664609375	0.750859375	9.6059375	9.6884401978948		
701	16032	1497116372	0.48341836734694	0.51128029336735	8.986009247449	9.0313225101226		
702	16032	1497116373	0.87783003826531	0.82401945153061	9.5864955357143	9.7160897581824		
703	16032	1497116374	0.97625	1.7395703125	9.2039453125	9.5163942693548		
704	16032	1497116375	0.24479166666667	1.319365530303	9.2124763257576	9.3297086784411		
705	16032	1497116376	0.020078125	1.2066015625	9.2930859375	9.3712797650094		
706	16032	1497116377	0.019846906565657	1.2090041035354	9.2912720959596	9.369741672995		
707	16032	1497116378	0.0180078125	1.2055859375	9.288515625	9.3666129805525		
708	16032	1497116379	0.044882015306122	1.2034837372449	9.2993463010204	9.3771889877526		
709	16032	1497116380	0.080859375	1.2546875	9.280390625	9.3701523021875		
710	16032	1497116381	0.0040625	1.2641015625	9.2734375	9.3592992253301		
711	16032	1497116382	0.0041454081632653	1.2631935586735	9.2796954719388	9.3653830696209		
712	16032	1497116383	0.0058984375	1.2429296875	9.2745703125	9.3576149507045		
713	16032	1497116384	0.0057421875	1.2328125	9.281484375	9.3635593795948		
714	16032	1497116385	0.0069839015151515	1.2540246212121	9.2693734217172	9.3542468468282		
715	16032	1497116386	0.0084438131313131	1.2576152146465	9.2793955176768	9.3643210902507		
716	16032	1497116387	0.007890625	1.2592578125	9.2812890625	9.3664304092482		
717	16032	1497116388	0.011171875	1.247890625	9.27515625	9.3590759015054		
718	16032	1497116389	0.0046484375	1.233828125	9.2846875	9.3665228990051		
719	16032	1497116390	0.0078125	1.2320703125	9.282265625	9.3637856199824		
720	16032	1497116391	0.46484375	1.23046875	9.2777734375	9.3777641562398		
721	16032	1497116392	0.91374684343434	1.2271938131313	9.2748184974747	9.4033651265747	s	d
722	16032	1497116393	0.99080650252525	1.1995738636364	9.2659011994949	9.3968532467802		
723	16032	1497116394	0.8862109375	1.2201171875	9.263515625	9.3870207603709		
724	16032	1497116395	0.77166193181818	1.2212357954545	9.2646385732323	9.3777143018127		
725	16032	1497116396	0.2446875	1.2630859375	9.2737890625	9.3659424528745		
726	16032	1497116397	0.1584375	1.27203125	9.2126171875	9.3077099313379		
727	16032	1497116398	0.20513731060606	1.2251025883838	9.2176846590909	9.3068048056279		
728	16032	1497116399	0.16244476010101	1.2546164772727	9.2076625631313	9.298672466626		
729	16032	1497116400	0.28957544191919	1.2817234848485	9.2060448232323	9.310421527345		
730	16032	1497116401	0.0705859375	1.27375	9.20828125	9.2970601024688		
731	16032	1497116402	0.12693339646465	1.3369239267677	9.2328361742424	9.3375117038356		
732	16032	1497116403	0.2196875	1.2971875	9.2862109375	9.3882682092078		
733	16032	1497116404	0.18106849747475	1.3024779040404	9.2387152777778	9.3396396271221		
734	16032	1497116405	0.355625	1.3347265625	9.2284765625	9.3410915463987		
735	16032	1497116406	0.2971484375	1.338203125	9.2341796875	9.3426121634565		
736	16032	1497116407	0.340234375	1.3187890625	9.2171875	9.3294134258357		
737	16032	1497116408	0.2577734375	1.3627734375	9.2091015625	9.3199056171063		
738	16032	1497116409	0.33992266414141	1.3063841540404	9.2479482323232	9.3539242687816		
739	16032	1497116410	0.29423137626263	1.2163431186869	9.2565498737374	9.3441085263927		
740	16032	1497116411	0.14311079545455	1.2629813762626	9.2653093434343	9.3562973437753		
741	16032	1497116412	0.37984212239583	1.1523030598958	9.2801513671875	9.364149323223		
742	16032	1497116413	0.5200836489899	1.2839725378788	9.279632260101	9.3877213835939		
743	16032	1497116414	0.533984375	1.1913671875	9.2965234375	9.3932796295979		
744	16032	1497116415	0.30317283163265	1.2239317602041	9.2883450255102	9.3793999353607		
745	16032	1497116416	0.21921875	1.13171875	9.2962109375	9.3745349436102		
746	16032	1497116417	0.52280618686869	1.0918560606061	9.3583885732323	9.4402000142542		
747	16032	1497116418	0.59915561868687	1.1740451388889	9.3114346590909	9.4125390950088		
748	16032	1497116419	0.58992346938776	1.1143574617347	9.3085538903061	9.3990679914179		
749	16032	1497116420	0.62799873737374	1.1435448232323	9.3299794823232	9.4263491146216		
750	16032	1497116421	0.585234375	1.1818359375	9.31875	9.421336834372		
751	16032	1497116422	0.70491868622449	1.1231265943878	9.3178810586735	9.4180965965407		
752	16032	1497116423	0.7176953125	1.183984375	9.302265625	9.4088387895173		
753	16032	1497116424	0.7919140625	1.2398046875	9.2887109375	9.4077721241262		
754	16032	1497116425	0.73682133838384	1.2458964646465	9.2664930555556	9.3840632387343		
755	16032	1497116426	0.65163352272727	1.2645202020202	9.2952967171717	9.4128474089954		
756	16032	1497116427	0.713046875	1.2630078125	9.2613671875	9.3776328167883		
757	16032	1497116428	0.5532421875	1.29125	9.2483203125	9.3579098362996		
758	16032	1497116429	0.4985546875	1.3658984375	9.2672265625	9.3856741380776		
759	16032	1497116430	0.54573074494949	1.3597301136364	9.2652304292929	9.383134471859		
760	16032	1497116431	0.4759765625	1.3153515625	9.2439453125	9.3515120812756		
761	16032	1497116432	0.3676171875	1.34828125	9.2946484375	9.4007799376009		
762	16032	1497116433	0.3344140625	1.3455859375	9.36484375	9.4698905296204		
763	16032	1497116434	0.31242108585859	1.3521148989899	9.3464725378788	9.4532476705215		
764	16032	1497116435	0.3416015625	1.3521875	9.3725	9.478055222685		
765	16032	1497116436	0.2651953125	1.381640625	9.3975	9.5050539271871		
766	16032	1497116437	0.110390625	1.3706640625	9.3941796875	9.4972976295915		
767	16032	1497116438	0.099921875	1.365546875	9.325234375	9.4271621089995		
768	16032	1497116439	0.36426767676768	1.3172743055556	9.2702809343434	9.3735012484753		
769	16032	1497116440	0.5737890625	1.3623046875	9.2902734375	9.4095797657265		
770	16032	1497116441	0.4873046875	1.3463671875	9.302734375	9.4143686986369		
771	16032	1497116442	0.77414772727273	1.3351089015152	9.2948626893939	9.4251314531968		
772	16032	1497116443	0.86777935606061	1.3469460227273	9.3081991792929	9.446618798189		
773	16032	1497116444	0.906328125	1.335	9.29828125	9.4405748991332		
774	16032	1497116445	1.071796875	1.33625	9.3178125	9.4768830257959		
775	16032	1497116446	0.99427872474747	1.3406328914141	9.310882260101	9.4615883513209		
776	16032	1497116447	0.1159765625	1.3401171875	9.2876953125	9.3863881355051		
777	16032	1497116448	0.30452967171717	1.3399621212121	9.299163510101	9.4031573504665		
778	16032	1497116449	0.40609375	1.3414453125	9.2984765625	9.4054936472581		
779	16032	1497116450	0.6236328125	1.33671875	9.3022265625	9.4307625043583		
780	16032	1497116451	0.043126578282828	1.3083175505051	9.3032670454545	9.3950928240458		
781	16032	1497116452	0.041903409090909	1.2889046717172	9.3008996212121	9.3901203178018		
782	16032	1497116453	0.17410714285714	1.2795758928571	9.2893415178571	9.3808176865947	s	s
783	16032	1497116454	0.081123737373737	1.3085148358586	9.2963226010101	9.389331533028		
784	16032	1497116455	0.042729591836735	1.2965162627551	9.3054049744898	9.3955371240159		
785	16032	1497116456	0.042061237373737	1.2942313762626	9.2989662247475	9.388780510184		
786	16032	1497116457	0.040592783505155	1.2955460695876	9.305774806701	9.3957166919037		
787	16032	1497116458	0.041745580808081	1.2981770833333	9.3042140151515	9.3945442257681		
788	16032	1497116459	0.04265625	1.30015625	9.3072265625	9.3979389801167		
789	16032	1497116460	0.041533801020408	1.2973533163265	9.3048867984694	9.3951725969308		
790	16032	1497116461	0.04068023989899	1.3064630681818	9.3031486742424	9.3946203486337		
791	16032	1497116462	0.0525390625	1.3057421875	9.2912109375	9.3827968449138		
792	16032	1497116463	0.082859848484848	1.3256392045455	9.2856297348485	9.3806814251443		
793	16032	1497116464	0.066721906565657	1.3043323863636	9.3016098484848	9.3929005547463		
794	16032	1497116465	0.0984375	1.354453125	9.28125	9.3802454742878		
795	16032	1497116466	0.11190025252525	1.3720012626263	9.2824731691919	9.3840564115853		
796	16032	1497116467	0.1193359375	1.3716796875	9.2837890625	9.3854021265108		
797	16032	1497116468	0.13024779040404	1.3662799873737	9.2787642045455	9.3797916587313		
798	16032	1497116469	0.11900252525253	1.3748027146465	9.2837752525253	9.3858243417929		
799	16032	1497116470	0.11051925505051	1.37109375	9.2779356060606	9.3794016030743		
800	16032	1497116471	0.11446496212121	1.3715672348485	9.2758443813131	9.3776265003929		
801	16032	1497116472	0.1185546875	1.374140625	9.282578125	9.3845611226362		
802	16032	1497116473	0.1169921875	1.370546875	9.2834375	9.3849471054363		
803	16032	1497116474	0.73520359848485	1.3703046085859	9.2696890782828	9.4016801543369		
804	16032	1497116475	1.023515625	1.3627734375	9.2641015625	9.4205832615554	s	d
805	16032	1497116476	1.0943359375	1.3603515625	9.275703125	9.4392648696166		
806	16032	1497116477	1.0774147727273	1.3497080176768	9.2512626262626	9.4123883556845		
807	16032	1497116478	1.0384375	1.371953125	9.2743359375	9.4342344772746		
808	16032	1497116479	0.87713068181818	1.3776436237374	9.2592329545455	9.4037104408486		
809	16032	1497116480	0.9351881377551	1.3625637755102	9.2648278061224	9.4124445388369		
810	16032	1497116481	0.86391256313131	1.3739741161616	9.2480666035354	9.3914490587836		
811	16032	1497116482	0.810859375	1.3959375	9.2953125	9.4363798641731		
812	16032	1497116483	0.85215435606061	1.3971748737374	9.2616792929293	9.4089647904218		
813	16032	1497116484	0.84609375	1.4055078125	9.236953125	9.3859800867437		
814	16032	1497116485	0.8367578125	1.3694140625	9.2953515625	9.437719858342		
815	16032	1497116486	0.87204071969697	1.3205492424242	9.2379655934343	9.3768350578438		
816	16032	1497116487	0.7949609375	1.313359375	9.2809375	9.4098211285379		
817	16032	1497116488	0.677265625	1.2530859375	9.298828125	9.4121310389501		
818	16032	1497116489	0.50078125	1.2485546875	9.326875	9.4278425228318		
819	16032	1497116490	0.52407525510204	1.178053252551	9.340162627551	9.4355061677138		
820	16032	1497116491	0.5871484375	1.0822265625	9.3712890625	9.4626689019719		
821	16032	1497116492	0.419921875	1.1047911352041	9.3551897321429	9.4440819404309		
822	16032	1497116493	0.3789453125	1.0916015625	9.3528125	9.439437841455		
823	16032	1497116494	0.39827967171717	1.088896780303	9.3637941919192	9.4574145648961		
824	16032	1497116495	0.4213226010101	1.1120186237374	9.3900726010101	9.4815143084526		
825	16032	1497116496	0.16141887626263	1.0350378787879	9.4013573232323	9.4679665621981		
826	16032	1497116497	0.18840751262626	1.0456123737374	9.3339646464646	9.4049657150181		
827	16032	1497116498	0.411484375	1.1081640625	9.3396484375	9.4325720803668		
828	16032	1497116499	0.638671875	1.3265234375	9.3155078125	9.486437385473		
829	16032	1497116500	0.1788671875	1.38453125	9.3244140625	9.4339963730878		
830	16032	1497116501	0.25130208333333	1.3674242424242	9.2734375	9.3812022481982		
831	16032	1497116502	0.4115234375	1.3033203125	9.26828125	9.3729751296175		
832	16032	1497116503	0.3115625	1.277890625	9.304765625	9.4020702573084		
833	16032	1497116504	0.138984375	1.4875	9.2340625	9.3602319974501		
834	16032	1497116505	0.1349609375	1.657578125	9.180625	9.3376856439577		
835	16032	1497116506	0.17088857323232	1.8025962752525	9.2520912247475	9.4360506992408		
836	16032	1497116507	0.37523205445545	1.8667233910891	9.2257116336634	9.4280262353651		
837	16032	1497116508	0.1350390625	1.8725	9.20765625	9.4070444134027		
838	16032	1497116509	0.13921875	1.85078125	9.203984375	9.3965837635158		
839	16032	1497116510	0.205234375	1.8012890625	9.2411328125	9.4235866569329		
840	16032	1497116511	0.1273046875	1.8347265625	9.1975	9.3850882900564		
841	16032	1497116512	0.11213699494949	1.8138809974747	9.1972458964646	9.3808012831305		
842	16032	1497116513	0.22076231060606	1.795928030303	9.2206044823232	9.4032395149588		
843	16032	1497116514	0.11796875	1.79140625	9.225	9.4023029024856		
844	16032	1497116515	0.110234375	1.8126171875	9.225625	9.4087448570452		
845	16032	1497116516	0.1085546875	1.825390625	9.2219140625	9.4051418182736		
846	16032	1497116517	0.121484375	1.75703125	9.2184375	9.3899632233979		
847	16032	1497116518	0.131796875	1.751640625	9.2417578125	9.4109739915878		
848	16032	1497116519	0.14741161616162	1.6994160353535	9.21875	9.3800898623703		
849	16032	1497116520	0.1293359375	1.7346484375	9.23734375	9.4042094084559		
850	16032	1497116521	0.270625	1.67625	9.2537109375	9.4174256155021		
851	16032	1497116522	0.136953125	1.675859375	9.234375	9.3908433614937		
852	16032	1497116523	0.1365234375	1.69125	9.2401953125	9.403133740829		
853	16032	1497116524	0.1324609375	1.6551953125	9.219375	9.3723551560059		
854	16032	1497116525	0.149453125	1.6323046875	9.236953125	9.3842617260848		
855	16032	1497116526	0.4433984375	1.5776953125	9.21921875	9.3668824816354		
856	16032	1497116527	0.72671875	1.4271484375	9.2584375	9.4022307368315		
857	16032	1497116528	0.5616015625	1.40546875	9.3315625	9.4591748476884		
858	16032	1497116529	0.49557557397959	1.3372927295918	9.302096619898	9.4139385874662		
859	16032	1497116530	0.46283143939394	1.2425031565657	9.3068970959596	9.4042084153824		
860	16032	1497116531	0.5473828125	1.2380078125	9.265390625	9.3687850219113		
861	16032	1497116532	0.86666932397959	1.2593670280612	9.3353794642857	9.4654894624048		
862	16032	1497116533	0.8055859375	1.26796875	9.2991015625	9.4233990261187		
863	16032	1497116534	0.6573046875	1.2296875	9.3215234375	9.4275385222338		
864	16032	1497116535	0.8882421875	1.2507421875	9.3089453125	9.4365836921412		
865	16032	1497116536	0.908828125	1.2496484375	9.308125	9.4366166451557		
866	16032	1497116537	1.1814014668367	1.2171954719388	9.312818877551	9.4669307556297		
867	16032	1497116538	1.1775390625	1.2316015625	9.3080078125	9.4637602514133		
868	16032	1497116539	0.989375	1.2296484375	9.3194140625	9.4524140598191		
869	16032	1497116540	0.6934765625	1.231328125	9.3118359375	9.4195160792979		
870	16032	1497116541	0.44985006313131	1.2370580808081	9.3087910353535	9.4140183805479		
871	16032	1497116542	0.033222853535354	1.2216698232323	9.305358270202	9.3855364922797	s	s
872	16032	1497116543	0.14202008928571	1.2932079081633	9.310865752551	9.4026417910466		
873	16032	1497116544	0.0124609375	1.3062890625	9.3106640625	9.4019971970735		
874	16032	1497116545	0.0090356691919192	1.3344381313131	9.2976641414141	9.3931500911138		
875	16032	1497116546	0.008125	1.3376171875	9.299765625	9.3956763628959		
876	16032	1497116547	0.023152669270833	1.3486328125	9.3115234375	9.4094186628897		
877	16032	1497116548	0.0091796875	1.332265625	9.3044921875	9.3995322771334		
878	16032	1497116549	0.0060369318181818	1.3364898989899	9.306976010101	9.4026157063925		
879	16032	1497116550	0.0072146045918367	1.3282844387755	9.3075175382653	9.401920262358		
880	16032	1497116551	0.015072601010101	1.3399226641414	9.3025962752525	9.398745520815		
881	16032	1497116552	0.015	1.346796875	9.29484375	9.3919968540183		
882	16032	1497116553	0.014389349489796	1.3523995535714	9.2953603316327	9.3932696262819		
883	16032	1497116554	0.01171875	1.3460454252577	9.2949420103093	9.391942130863		
884	16032	1497116555	0.0072265625	1.330703125	9.3019140625	9.3966887085801		
885	16032	1497116556	0.0071811868686869	1.327454229798	9.2947837752525	9.3892186078425		
886	16032	1497116557	0.0093907828282828	1.3231928661616	9.2996764520202	9.3935325189295		
887	16032	1497116558	0.010234375	1.3176953125	9.296171875	9.3893530618438		
888	16032	1497116559	0.0070703125	1.32578125	9.3066796875	9.4010429680147		
889	16032	1497116560	0.01140625	1.3323828125	9.297890625	9.3931760856562		
890	16032	1497116561	0.0089453125	1.329375	9.2909765625	9.3859961657146		
891	16032	1497116562	0.011639835858586	1.3326231060606	9.2985716540404	9.3939549040333		
892	16032	1497116563	0.56201675257732	1.3447164948454	9.2950628221649	9.4131680946875	s	d
893	16032	1497116564	1.0980113636364	1.3440261994949	9.2776988636364	9.4439889020928		
894	16032	1497116565	1.1840672348485	1.3738162878788	9.2667297979798	9.4435674281508		
895	16032	1497116566	1.1096484375	1.376640625	9.2777734375	9.4459471343336		
896	16032	1497116567	1.1775749362245	1.4033402423469	9.2887037627551	9.4697149065444		
897	16032	1497116568	0.8867578125	1.350546875	9.283203125	9.4249324162868		
898	16032	1497116569	0.82990056818182	1.3826941287879	9.2748579545455	9.4165868933255		
899	16032	1497116570	0.8912890625	1.38828125	9.2409765625	9.3909033793524		
900	16032	1497116571	0.69882417929293	1.3960306186869	9.186158459596	9.3210847945567		
901	16032	1497116572	0.66078756313131	1.3993450126263	9.2323232323232	9.3661301151064		
902	16032	1497116573	0.6673828125	1.427578125	9.2590234375	9.3964977164982		
903	16032	1497116574	0.7544140625	1.52921875	9.2682421875	9.438883629429		
904	16032	1497116575	0.65842013888889	1.4985400883838	9.3225220959596	9.4707098457331		
905	16032	1497116576	0.59875	1.5183203125	9.2211328125	9.3761360806235		
906	16032	1497116577	0.49979864690722	1.5915351159794	9.1734455541237	9.3369294343904		
907	16032	1497116578	0.27008928571429	1.5925542091837	9.1994977678571	9.346483869533		
908	16032	1497116579	0.1586662371134	1.5153028350515	9.1487596649485	9.2814674754377		
909	16032	1497116580	0.19440498737374	1.4235321969697	9.2260890151515	9.3424524783424		
910	16032	1497116581	0.097340593434343	1.3766966540404	9.2374131944444	9.3429211863975		
911	16032	1497116582	0.24338329081633	1.390306122449	9.2378427933673	9.360046335719		
912	16032	1497116583	0.2745422979798	1.3515230429293	9.3152225378788	9.4421374056913		
913	16032	1497116584	0.1556976010101	1.2775410353535	9.3117108585859	9.409855302451		
914	16032	1497116585	0.10759943181818	1.2148832070707	9.3667929292929	9.4514998589666		
915	16032	1497116586	0.26078125	1.23859375	9.2586328125	9.3499264343803		
916	16032	1497116587	0.513671875	1.3170703125	9.29765625	9.4074081569154		
917	16032	1497116588	0.721875	1.30609375	9.291015625	9.4140157658022		
918	16032	1497116589	0.7220703125	1.4588671875	9.31234375	9.4615605975472		
919	16032	1497116590	0.1855078125	1.3955078125	9.3997265625	9.5085863986538		
920	16032	1497116591	0.55764678030303	1.3854955808081	9.3444602272727	9.4684952059193		
921	16032	1497116592	0.5956640625	1.4143359375	9.3693359375	9.4979271153346		
922	16032	1497116593	0.28416982323232	1.3996606691919	9.3574021464646	9.4710562496225		
923	16032	1497116594	0.250703125	1.4354296875	9.375078125	9.4949144531657		
924	16032	1497116595	0.30923150510204	1.4250637755102	9.3685427295918	9.4864786890336		
925	16032	1497116596	0.31680484693878	1.515943877551	9.3008211096939	9.432762521439		
926	16032	1497116597	0.14453125	1.5053125	9.29890625	9.4270867722867		
927	16032	1497116598	0.2814453125	1.49078125	9.3342578125	9.463534506674		
928	16032	1497116599	0.10359534438776	1.4707828443878	9.3192761479592	9.4396307150965		
929	16032	1497116600	0.411328125	1.578046875	9.3197265625	9.4674753457124		
930	16032	1497116601	0.107890625	1.561328125	9.2812890625	9.41676898447		
931	16032	1497116602	0.12338226010101	1.5223721590909	9.2463304924242	9.3762466718759		
932	16032	1497116603	0.130546875	1.5678125	9.194140625	9.3352535663242		
933	16032	1497116604	0.11584595959596	1.5589488636364	9.1764125631313	9.3131302701658		
934	16032	1497116605	0.31296875	1.63859375	9.1397265625	9.3004953148037		
935	16032	1497116606	0.3427734375	1.5812109375	9.1918359375	9.3391030182836		
936	16032	1497116607	0.2918359375	1.588984375	9.162109375	9.3095235725659		
937	16032	1497116608	0.434375	1.5533203125	9.136484375	9.2826251095166		
938	16032	1497116609	0.12910353535354	1.6064551767677	9.2158696338384	9.3604348872098		
939	16032	1497116610	0.1851171875	1.5314453125	9.231875	9.3648372396436		
940	16032	1497116611	0.1465234375	1.48703125	9.242734375	9.36627267039		
941	16032	1497116612	0.5589453125	1.3680078125	9.30015625	9.4214242937141		
942	16032	1497116613	1.0134375	1.365078125	9.1758984375	9.3360411588257		
943	16032	1497116614	0.9620703125	1.4262109375	9.2980859375	9.4606778741287		
944	16032	1497116615	0.9228515625	1.361484375	9.2676953125	9.4182376234415		
945	16032	1497116616	0.898828125	1.375546875	9.2944140625	9.4474286656849		
946	16032	1497116617	1.0058984375	1.3943359375	9.33625	9.5039170848065		
947	16032	1497116618	1.036953125	1.3479296875	9.2919921875	9.460593894702		
948	16032	1497116619	1.114375	1.4152734375	9.25015625	9.4415009341518		
949	16032	1497116620	1.1794140625	1.3658203125	9.316484375	9.5007086773926		
950	16032	1497116621	1.1077178030303	1.3790640782828	9.2773832070707	9.4494650570227		
951	16032	1497116622	0.8000390625	1.379453125	9.27640625	9.4135428361601		
952	16032	1497116623	0.3180859375	1.3886328125	9.2787890625	9.4040963364599		
953	16032	1497116624	0.075402462121212	1.3230350378788	9.297545770202	9.3917540273431		
954	16032	1497116625	0.0765625	1.316640625	9.3021875	9.3954381035681		
955	16032	1497116626	0.07421875	1.3176688762626	9.296875	9.390229405779	s	s
956	16032	1497116627	0.20920138888889	1.3134864267677	9.2987294823232	9.3962374359315		
957	16032	1497116628	0.21355509020619	1.3865979381443	9.2904719716495	9.4087213562089		
958	16032	1497116629	0.33859375	1.3103125	9.3019921875	9.4166218840057		
959	16032	1497116630	0.200078125	1.3170703125	9.3002734375	9.395587970449		
960	16032	1497116631	0.2209765625	1.3272265625	9.2911328125	9.388376201375		
961	16032	1497116632	0.28925978535354	1.2870501893939	9.3042140151515	9.3980510077681		
962	16032	1497116633	0.3540625	1.2479296875	9.30765625	9.3986512132726		
963	16032	1497116634	0.28970025510204	1.275071747449	9.3307557397959	9.4232293767163		
964	16032	1497116635	0.30243234536082	1.2599871134021	9.3298163659794	9.4246899420301		
965	16032	1497116636	0.103515625	1.3219140625	9.3027734375	9.3970030978703		
966	16032	1497116637	0.10929528061224	1.3525589923469	9.2897799744898	9.3886771175812		
967	16032	1497116638	0.2248046875	1.2630859375	9.30734375	9.3958643794847		
968	16032	1497116639	0.26037720959596	1.2342960858586	9.3025962752525	9.3879485190565		
969	16032	1497116640	0.2365234375	1.2430078125	9.312421875	9.3983262963286		
970	16032	1497116641	0.22533933080808	1.2363478535354	9.3115135732323	9.3963615870697		
971	16032	1497116642	0.2419921875	1.2240234375	9.3141015625	9.3978823671656		
972	16032	1497116643	0.59323705808081	1.2227746212121	9.2950599747475	9.3958531313958	s	d
973	16032	1497116644	0.7928515625	1.3112109375	9.2788671875	9.4089313073102		
974	16032	1497116645	0.8722265625	1.3409765625	9.29046875	9.4363965628614		
975	16032	1497116646	0.76234375	1.2838671875	9.3062109375	9.4363945000417		
976	16032	1497116647	0.61130839646465	1.3281644570707	9.3087121212121	9.4306075648397		
977	16032	1497116648	0.49802714646465	1.4272806186869	9.2839330808081	9.4161732686649		
978	16032	1497116649	0.412734375	1.4086328125	9.248359375	9.3707553811801		
979	16032	1497116650	0.418828125	1.431171875	9.2637109375	9.3884816081241		
980	16032	1497116651	0.4999609375	1.403984375	9.2637109375	9.386443676743		
981	16032	1497116652	0.5747265625	1.3759765625	9.2344921875	9.3575271336626		
982	16032	1497116653	0.5111328125	1.5004296875	9.200546875	9.347962087556		
983	16032	1497116654	0.36253156565657	1.4170612373737	9.1996922348485	9.3226567661421		
984	16032	1497116655	0.3995703125	1.5101171875	9.2337890625	9.375115146484		
985	16032	1497116656	0.2942578125	1.6425390625	9.173671875	9.3377586639147		
986	16032	1497116657	0.188671875	1.5837890625	9.1291015625	9.2779433343949		
987	16032	1497116658	0.12440814393939	1.5581597222222	9.2319681186869	9.3680921555065		
988	16032	1497116659	0.1221875	1.4832421875	9.2141796875	9.3364444731145		
989	16032	1497116660	0.16682449494949	1.3955176767677	9.2958096590909	9.4062083280773		
990	16032	1497116661	0.1394140625	1.3600390625	9.296171875	9.4007360461907		
991	16032	1497116662	0.1672265625	1.2855078125	9.3039453125	9.3994353966595		
992	16032	1497116663	0.15550031565657	1.1775962752525	9.3680555555556	9.4509682367739		
993	16032	1497116664	0.1713671875	0.9875390625	9.36046875	9.4241868047806		
994	16032	1497116665	0.6398046875	0.9803515625	9.345390625	9.4261798014271		
995	16032	1497116666	0.62294823232323	1.129853219697	9.303069760101	9.4054942566832		
996	16032	1497116667	0.60479113520408	1.3146922831633	9.2888233418367	9.4163642846975		
997	16032	1497116668	0.50765467171717	1.3417376893939	9.2933238636364	9.4107965237377		
998	16032	1497116669	0.477421875	1.349765625	9.2829296875	9.4041038030948		
999	16032	1497116670	0.426875	1.371875	9.286953125	9.4024439412277		
1000	16032	1497116671	0.504375	1.3921484375	9.3675	9.4915433731194		
1001	16032	1497116672	1.1103614267677	1.3809185606061	9.3946496212121	9.5667601197845		
1002	16032	1497116673	1.2979403409091	1.3715672348485	9.3631234217172	9.5665244403913		
1003	16032	1497116674	1.319609375	1.3764453125	9.3616015625	9.5589714304227		
1004	16032	1497116675	1.0322265625	1.4187890625	9.2633984375	9.438064496947		
1005	16032	1497116676	0.33697385204082	1.2066326530612	9.3019770408163	9.3967811331552		
1006	16032	1497116677	0.32228535353535	1.1933001893939	9.3533775252525	9.4460387803818		
1007	16032	1497116678	0.36785827020202	1.102233270202	9.332978219697	9.4160652124784	s	x
1008	16032	1497116679	0.2885546875	1.061015625	9.408671875	9.4820027555693		
1009	16032	1497116680	0.27710700757576	0.97470801767677	9.4614109848485	9.5243166507147		
1010	16032	1497116681	0.19791666666667	1.0516493055556	9.3749605429293	9.4430729532693		
1011	16032	1497116682	0.20186237373737	1.020202020202	9.4462200126263	9.5104850335213		
1012	16032	1497116683	0.2089453125	0.94328125	9.426875	9.4852566537918		
1013	16032	1497116684	0.191015625	1.131328125	9.4769921875	9.5629093078294		
1014	16032	1497116685	0.2080078125	1.0015234375	9.53296875	9.5943583655061		
1015	16032	1497116686	0.15927933673469	0.92498405612245	9.5190130739796	9.5711589571758		
1016	16032	1497116687	0.1800390625	1.0567578125	9.5056640625	9.5725205958536		
1017	16032	1497116688	0.1649609375	1.0104296875	9.5466015625	9.6106390547142		
1018	16032	1497116689	0.3245703125	0.95625	9.50609375	9.5681930101459		
1019	16032	1497116690	0.15092329545455	0.98709753787879	9.5410748106061	9.5990770232606		
1020	16032	1497116691	0.118203125	0.9025390625	9.5103515625	9.5577468333076		
1021	16032	1497116692	0.11355744949495	1.0128630050505	9.4865451388889	9.5455688565666		
1022	16032	1497116693	0.12452651515152	1.0245817550505	9.4087752525253	9.4684087562348		
1023	16032	1497116694	0.1436328125	1.0556640625	9.373515625	9.4472956455938		
1024	16032	1497116695	0.4634765625	1.1990234375	9.31578125	9.4230917150145		
1025	16032	1497116696	0.45695233585859	1.3172348484848	9.3401594065657	9.4576693172403		
1026	16032	1497116697	0.18895991161616	1.3933080808081	9.34765625	9.4553979991742		
1027	16032	1497116698	0.181953125	1.386875	9.3853125	9.4925709752147		
1028	16032	1497116699	0.158828125	1.405	9.38734375	9.4954406028071		
1029	16032	1497116700	0.3585546875	1.3821484375	9.378828125	9.4888286648388		
1030	16032	1497116701	0.1874609375	1.376328125	9.3296484375	9.4339618302641		
1031	16032	1497116702	0.1675	1.3689453125	9.3556640625	9.4583021105422		
1032	16032	1497116703	0.1384375	1.382578125	9.316640625	9.4247549297721		
1033	16032	1497116704	0.532578125	1.4314453125	9.27015625	9.4018660263781		
1034	16032	1497116705	0.3541015625	1.41328125	9.269765625	9.3862340060118		
1035	16032	1497116706	0.365390625	1.4303125	9.2509765625	9.3748013047043		
1036	16032	1497116707	0.35765625	1.413828125	9.22140625	9.3394984665252		
1037	16032	1497116708	0.34580176767677	1.3955571338384	9.0701546717172	9.1891725872089		
1038	16032	1497116709	0.299140625	1.3940234375	9	9.1187273282607		
1039	16032	1497116710	0.23824179292929	1.3776041666667	9.0580413510101	9.1707766045848		
1040	16032	1497116711	0.1846484375	1.327734375	9.108125	9.2110301665267		
1041	16032	1497116712	0.251875	1.3737890625	9.259609375	9.3752047945978		
1042	16032	1497116713	0.50375	1.41296875	9.3123046875	9.4545870947175		
1043	16032	1497116714	0.5101171875	1.3722265625	9.221953125	9.3446462953763		
1044	16032	1497116715	0.49692234848485	1.3647017045455	9.2357559974747	9.3560246133172		
1045	16032	1497116716	0.68540877525253	1.3496291035354	9.2745028409091	9.4062963262419		
1046	16032	1497116717	0.63578125	1.3798828125	9.2634375	9.394990519435		
1047	16032	1497116718	0.522421875	1.3548828125	9.27125	9.3911999753392		
1048	16032	1497116719	0.8883984375	1.3426171875	9.2529296875	9.3957684533436		
1049	16032	1497116720	1.16625	1.3628515625	9.246484375	9.422420918695		
1050	16032	1497116721	1.1897095959596	1.3469065656566	9.2475536616162	9.4275209596522		
1051	16032	1497116722	0.99680397727273	1.3451704545455	9.2422664141414	9.396922922488		
1052	16032	1497116723	1.0675	1.349296875	9.2613671875	9.4218646552029		
1053	16032	1497116724	1.0190625	1.346328125	9.2698046875	9.4253904855195		
1054	16032	1497116725	0.75197285353535	1.3508128156566	9.2570233585859	9.3927056569516		
1055	16032	1497116726	0.041328125	1.357578125	9.248984375	9.3484931101288		
1056	16032	1497116727	0.14610953282828	1.3802083333333	9.2668876262626	9.371552846392	s	s
1057	16032	1497116728	0.0636328125	1.374921875	9.246953125	9.3492687235271		
1058	16032	1497116729	0.059140625	1.365	9.2529296875	9.353706877859		
1059	16032	1497116730	0.052915592783505	1.3627577319588	9.260993878866	9.3612020206793		
1060	16032	1497116731	0.0353515625	1.3246484375	9.2621875	9.3568613187834		
1061	16032	1497116732	0.026875	1.31828125	9.27734375	9.3709749662949		
1062	16032	1497116733	0.027109375	1.3167578125	9.264921875	9.3582552417469		
1063	16032	1497116734	0.216171875	1.30953125	9.2877734375	9.395460748581		
1064	16032	1497116735	1.4359765625	2.32375	8.9269140625	9.4758265705876		
1065	16032	1497116736	1.104296875	1.9035546875	9.4013671875	9.7692440955991		
1066	16032	1497116737	1.7828515625	2.1868359375	8.6118359375	9.2075374787146		
1067	16032	1497116738	0.9060546875	0.4976171875	9.417890625	9.6372540235772		
1068	16032	1497116739	0.61491549744898	0.14943399234694	9.4300462372449	9.4562541811583		
1069	16032	1497116740	0.6149609375	0.0587109375	9.46125	9.4814728542402		
1070	16032	1497116741	0.6183984375	0.060078125	9.476796875	9.4972163559365		
1071	16032	1497116742	0.61734375	0.060859375	9.4591015625	9.4795089810593		
1072	16032	1497116743	0.61686862244898	0.061264349489796	9.457350127551	9.4777292761041		
1073	16032	1497116744	0.6190234375	0.0601953125	9.4543359375	9.474875439808		
1074	16032	1497116745	0.6147712628866	0.06225837628866	9.4523195876289	9.4726093870084		
1075	16032	1497116746	0.6171875	0.0628515625	9.45484375	9.4752864991055		
1076	16032	1497116747	0.6141796875	0.0660546875	9.45578125	9.4762535931072		
1077	16032	1497116748	0.6155303030303	0.075599747474747	9.4480350378788	9.4696018023516	s	d
1078	16032	1497116749	0.77884311868687	0.098524305555556	9.448547979798	9.4860121074644		
1079	16032	1497116750	1.3953125	0.03765625	9.395234375	9.4989852331672		
1080	16032	1497116751	1.5472301136364	0.048413825757576	9.3609532828283	9.4890504746288		
1081	16032	1497116752	1.5050505050505	0.070785984848485	9.3513652146465	9.4732655407499		
1082	16032	1497116753	1.5157433712121	0.084043560606061	9.3967803030303	9.5200674945784		
1083	16032	1497116754	1.415703125	0.069609375	9.3683203125	9.476574056715		
1084	16032	1497116755	1.266571969697	0.073350694444444	9.4086174242424	9.4963129514233		
1085	16032	1497116756	1.1497001262626	0.080018939393939	9.3783538510101	9.4516118941534		
1086	16032	1497116757	1.2119140625	0.0951953125	9.428046875	9.50849729044		
1087	16032	1497116758	1.2260546875	0.118046875	9.431171875	9.5186200456943		
1088	16032	1497116759	1.1766493055556	0.11071654040404	9.4621606691919	9.5405704535718		
1089	16032	1497116760	1.20640625	0.1839453125	9.48046875	9.5677303729162		
1090	16032	1497116761	0.6321484375	0.163046875	9.4665625	9.4950931234912		
1091	16032	1497116762	0.61837121212121	0.19937657828283	9.4045138888889	9.4355536098034		
1092	16032	1497116763	0.5708203125	0.1398828125	9.6430859375	9.6650871113876		
1093	16032	1497116764	0.6039453125	0.13515625	9.3974609375	9.4215635372454		
1094	16032	1497116765	0.7620703125	0.15078125	9.4191796875	9.455839668187		
1095	16032	1497116766	0.63953125	0.4156640625	9.441015625	9.4821024862791		
1096	16032	1497116767	0.62740688131313	0.62381628787879	9.2832228535354	9.3288987879815		
1097	16032	1497116768	0.6081640625	0.71015625	9.4194140625	9.4695427183275		
1098	16032	1497116769	0.548984375	0.729375	9.336015625	9.3853013536535		
1099	16032	1497116770	0.76369160353535	0.55145202020202	9.3951231060606	9.4475691043099		
1100	16032	1497116771	0.5221484375	0.1477734375	9.3809375	9.3985325651243		
1101	16032	1497116772	0.60765625	0.105546875	9.420234375	9.4419176046555		
1102	16032	1497116773	0.6223828125	0.104296875	9.403671875	9.4265353935478		
1103	16032	1497116774	0.6258984375	0.09671875	9.458671875	9.4813475919433		
1104	16032	1497116775	0.66777146464646	0.084122474747475	9.4720643939394	9.4976728646739		
1105	16032	1497116776	0.7528125	0.0998828125	9.4565234375	9.4885694874126		
1106	16032	1497116777	1.138359375	0.074765625	9.4603125	9.5322939018532		
1107	16032	1497116778	0.893515625	0.097578125	9.5396484375	9.5869602232157		
1108	16032	1497116779	0.59640625	0.17046875	9.4846875	9.5078769703493		
1109	16032	1497116780	0.6220703125	0.1753125	9.442734375	9.467221743738		
1110	16032	1497116781	0.952421875	0.2186328125	9.4404296875	9.4945765731598		
1111	16032	1497116782	0.76073232323232	0.18951231060606	9.3860874368687	9.4215643333199		
1112	16032	1497116783	0.67148042929293	0.18659248737374	9.4670928030303	9.4962066097888		
1113	16032	1497116784	0.6494921875	0.1559765625	9.5480078125	9.5742372877504		
1114	16032	1497116785	0.56151357323232	0.19389204545455	9.5342487373737	9.5554528130522		
1115	16032	1497116786	0.6053125	0.135859375	9.451328125	9.4743865507387		
1116	16032	1497116787	1.0101171875	0.076953125	9.44640625	9.5033958446535		
1117	16032	1497116788	0.72072285353535	0.096827651515152	9.4245186237374	9.4545831006198		
1118	16032	1497116789	0.757265625	0.07640625	9.4006640625	9.4321570580799		
1119	16032	1497116790	0.8716796875	0.10125	9.4659375	9.507909977426		
1120	16032	1497116791	0.94543207908163	0.070352359693878	9.439772002551	9.4882837595805		
1121	16032	1497116792	0.9108203125	0.120859375	9.418515625	9.4670203686199		
1122	16032	1497116793	0.934921875	0.078984375	9.411953125	9.4596778148023		
1123	16032	1497116794	0.9423828125	0.09046875	9.40640625	9.457024441996		
1124	16032	1497116795	0.8891796875	0.120546875	9.411171875	9.4570508459121		
1125	16032	1497116796	0.6763336489899	0.23551925505051	9.393860479798	9.4304482535701		
1126	16032	1497116797	0.7606640625	0.6463671875	9.5255859375	9.5963950442623		
1127	16032	1497116798	0.8225615530303	0.21152935606061	9.3909801136364	9.4358079902894		
1128	16032	1497116799	0.55867346938776	0.083386479591837	9.4479432397959	9.4655618257635		
1129	16032	1497116800	0.77880366161616	0.085148358585859	9.4552162247475	9.4891981108833		
1130	16032	1497116801	0.5821875	0.085625	9.44265625	9.4615604222341		
1131	16032	1497116802	0.73038983585859	0.083570075757576	9.4314630681818	9.4616848521827		
1132	16032	1497116803	0.80038265306122	0.078244579081633	9.3878348214286	9.4246443733828		
1133	16032	1497116804	1.2357302295918	0.086575255102041	9.3543925382653	9.437712913877		
1134	16032	1497116805	0.96859375	0.0701171875	9.410390625	9.4618168491598		
1135	16032	1497116806	0.7738671875	0.1125390625	9.4894921875	9.5236004227103		
1136	16032	1497116807	0.8180859375	0.0765625	9.3958984375	9.4368582778027		
1137	16032	1497116808	1.0731139520202	0.079624368686869	9.3697127525253	9.4333856762585		
1138	16032	1497116809	1.02984375	0.0978515625	9.360078125	9.418702274497		
1139	16032	1497116810	1.0174794823232	0.12464488636364	9.3641098484848	9.4220889145613		
1140	16032	1497116811	1.092408459596	0.15261994949495	9.3617029671717	9.4288338596302		
1141	16032	1497116812	0.61078125	0.1334765625	9.4150390625	9.4378461758565		
1142	16032	1497116813	0.7217578125	0.12046875	9.39828125	9.4305660851155		
1143	16032	1497116814	0.88046875	0.141875	9.36015625	9.4055723603824		
1144	16032	1497116815	1.197601010101	0.090356691919192	9.3295059974747	9.413423605588		
1145	16032	1497116816	1.4471875	0.1038671875	9.374453125	9.4876087441229		
1146	16032	1497116817	1.3735795454545	0.1171875	9.2366240530303	9.3413523358156		
1147	16032	1497116818	1.3106640625	0.1085546875	9.2365625	9.3331272812696		
1148	16032	1497116819	1.288046875	0.1696484375	9.382734375	9.4840959901109		
1149	16032	1497116820	1.2563525883838	0.18162089646465	9.4184816919192	9.5089624693184		
1150	16032	1497116821	1.2391493055556	0.20841224747475	9.4086174242424	9.4966383425661		
1151	16032	1497116822	1.0949337121212	0.27943497474747	9.3643860479798	9.4395977017728		
1152	16032	1497116823	0.758671875	0.362578125	9.3800390625	9.427671494779		
1153	16032	1497116824	0.76594065656566	0.28878630050505	9.4094065656566	9.4547019081295		
1154	16032	1497116825	0.56214488636364	0.39689867424242	9.3859296085859	9.4209421717586		
1155	16032	1497116826	1.0501953125	0.1989453125	9.4401953125	9.5060934689497		
1156	16032	1497116827	1.1025390625	0.213515625	9.5545703125	9.6244731722644		
1157	16032	1497116828	1.1002998737374	0.40084438131313	9.6698626893939	9.7481887874778		
1158	16032	1497116829	0.5153515625	0.24859375	9.6772265625	9.702779153765		
1159	16032	1497116830	0.211796875	0.1841015625	9.6908203125	9.6977522880508		
1160	16032	1497116831	0.32875631313131	0.22845643939394	9.4476404671717	9.4607507956163		
1161	16032	1497116832	0.2669921875	0.197734375	9.471484375	9.4813742982012		
1162	16032	1497116833	0.24171401515152	0.18130523989899	9.6135574494949	9.622972871265		
1163	16032	1497116834	0.21279198232323	0.12756470959596	9.4471275252525	9.4525943691443		
1164	16032	1497116835	0.26160037878788	0.10195707070707	9.4396306818182	9.4473128324325		
1165	16032	1497116836	0.3136047979798	0.10838857323232	9.4413273358586	9.448757145098		
1166	16032	1497116837	0.3526953125	0.111796875	9.454921875	9.4642462517205		
1167	16032	1497116838	0.20213857323232	0.11509627525253	9.4781407828283	9.4826909330376		
1168	16032	1497116839	0.41112274484536	0.11424774484536	9.5073695231959	9.5180815228353		
1169	16032	1497116840	0.3330859375	0.11375	9.567265625	9.5752172966037		
1170	16032	1497116841	0.37689393939394	0.10613952020202	9.5102193813131	9.5200953916999		
1171	16032	1497116842	0.4784375	0.0968359375	9.4735546875	9.4874728491369		
1172	16032	1497116843	0.33720012626263	0.11710858585859	9.585266729798	9.5944943061927		
1173	16032	1497116844	0.46006944444444	0.10886205808081	9.5331439393939	9.5463357961177		
1174	16032	1497116845	0.50296875	0.102421875	9.500859375	9.5161960485485		
1175	16032	1497116846	0.578515625	0.1017578125	9.44109375	9.460882410899		
1176	16032	1497116847	0.6890234375	0.095703125	9.42328125	9.4511519268314		
1177	16032	1497116848	0.8286773989899	0.13853377525253	9.4095643939394	9.4518965948692		
1178	16032	1497116849	0.835703125	0.097109375	9.4150390625	9.454859862445		
1179	16032	1497116850	0.917734375	0.1310546875	9.4666015625	9.5140397259034		
1180	16032	1497116851	1.06484375	0.1363671875	9.314375	9.3793124785505		
1181	16032	1497116852	1.040546875	0.1153515625	9.4341796875	9.4942704369617		
1182	16032	1497116853	1.2828515625	0.0832421875	9.33	9.4206005841869		
1183	16032	1497116854	1.1519097222222	0.095170454545455	9.314788510101	9.3889276318164		
1184	16032	1497116855	1.0844921875	0.1211328125	9.37046875	9.4376109440108		
1185	16032	1497116856	0.989140625	0.1386328125	9.361015625	9.419151602785		
1186	16032	1497116857	0.9280859375	0.104609375	9.469921875	9.5199662258583		
1187	16032	1497116858	0.8030859375	0.158359375	9.4367578125	9.4773982896562		
1188	16032	1497116859	0.830546875	0.14015625	9.4634765625	9.5049484855604		
1189	16032	1497116860	0.74932922979798	0.51538825757576	9.4775489267677	9.5454039320372		
1190	16032	1497116861	0.65329071969697	0.56123737373737	9.5681029040404	9.6176923763706		
1191	16032	1497116862	0.49578125	0.5925	9.530234375	9.5754259276518		
1192	16032	1497116863	1.0006640625	0.1701953125	9.4530859375	9.5110567396516		
1193	16032	1497116864	0.613515625	0.1300390625	9.453046875	9.4766376515464		
1194	16032	1497116865	0.40668402777778	0.11825284090909	9.4851246843434	9.4964328605273		
1195	16032	1497116866	0.327421875	0.194296875	9.4579296875	9.468403703513		
1196	16032	1497116867	0.6361328125	0.4529296875	9.43140625	9.4802422568729		
1197	16032	1497116868	0.759375	0.6908203125	9.4340625	9.5093433261299		
1198	16032	1497116869	0.94136679292929	0.75702335858586	9.4835069444444	9.5670815642634		
1199	16032	1497116870	0.536953125	0.515234375	9.4374609375	9.5146956207108		
1200	16032	1497116871	0.6444140625	0.1562890625	9.4334765625	9.4606125729232		
1201	16032	1497116872	0.6565234375	0.177890625	9.4980078125	9.5264000057613		
1202	16032	1497116873	0.7301171875	0.068515625	9.4199609375	9.4500042485192		
1203	16032	1497116874	0.5531640625	0.0802734375	9.495	9.51203020559		
1204	16032	1497116875	0.388984375	0.0703515625	9.47703125	9.4878168993006		
1205	16032	1497116876	0.2100390625	0.08125	9.48671875	9.4903508605742		
1206	16032	1497116877	0.30546875	0.0742578125	9.47828125	9.4844275380442		
1207	16032	1497116878	0.14393939393939	0.090080492424242	9.4987373737374	9.50074870037		
1208	16032	1497116879	0.23390625	0.065546875	9.49359375	9.4970354065135		
1209	16032	1497116880	0.11714764030612	0.086216517857143	9.5134327168367	9.5149272042502		
1210	16032	1497116881	0.18832859848485	0.08203125	9.5355113636364	9.5380291632597		
1211	16032	1497116882	0.2209595959596	0.08984375	9.5151120580808	9.5183407478		
1212	16032	1497116883	0.27347695707071	0.088936237373737	9.5309738005051	9.5356389814485		
1213	16032	1497116884	0.096669823232323	0.10164141414141	9.5201625631313	9.521969558386		
1214	16032	1497116885	0.3304368622449	0.078125	9.5048230229592	9.5162426483662		
1215	16032	1497116886	0.60104955808081	0.058830492424242	9.4596748737374	9.4792075376389		
1216	16032	1497116887	0.60527146464646	0.092211174242424	9.4593592171717	9.4801197459335	s	l
1217	16032	1497116888	0.7071875	0.39015625	9.4555859375	9.5531225557592		
1218	16032	1497116889	0.85965119949495	0.73362531565657	9.9299636994949	10.098919157549		
1219	16032	1497116890	1.2565625	1.5497265625	9.2148828125	9.5336625503588		
1220	16032	1497116891	1.0646125637755	1.2055165816327	9.2643893494898	9.4895919482637		
1221	16032	1497116892	0.6175	1.5234765625	9.0312890625	9.2354263972006		
1222	16032	1497116893	0.68627683080808	1.9833885732323	9.4307922979798	9.7279336952387		
