n	Session	accelerometer.seconds.Unix	accelerometer.accx.Average	accelerometer.accy.Average	accelerometer.accz.Average	accelerometer.accx.Average-All	events.type	events.description
1	16033	1497119675	0.74267578125	4.3076171875	8.30615234375	9.4308660741705		
2	16033	1497119676	0.99400252525253	3.6947206439394	8.5374842171717	9.465279405375		
3	16033	1497119677	0.50208849009901	3.9488319925743	8.3171797648515	9.2666233894603		
4	16033	1497119678	0.6316015625	4.071953125	8.1934375	9.2491047768936		
5	16033	1497119679	0.46346275252525	2.1450441919192	9.028685290404	9.3238288642586		
6	16033	1497119680	0.2771484375	3.09578125	8.714296875	9.2653831321127		
7	16033	1497119681	0.18655303030303	2.7527225378788	8.8264678030303	9.2510227576693		
8	16033	1497119682	0.42589962121212	1.6488715277778	9.1418481691919	9.366952966207		
9	16033	1497119683	0.38421875	1.7293359375	9.1737109375	9.3593736384191		
10	16033	1497119684	0.12910554846939	1.5518176020408	9.2293925382653	9.3609772768337		
11	16033	1497119685	0.2618359375	1.2552734375	9.26234375	9.3525939983597		
12	16033	1497119686	0.25075733418367	1.0911989795918	9.3500876913265	9.420330655123		
13	16033	1497119687	0.19262941919192	1.5172821969697	9.2120422979798	9.3418317211361		
14	16033	1497119688	0.032216494845361	1.5918572809278	9.2091655927835	9.3460006224833		
15	16033	1497119689	0.13411458333333	1.5292771464646	9.2015467171717	9.3322053828369		
16	16033	1497119690	0.63453125	0.7375	9.4641796875	9.537209478054		
17	16033	1497119691	0.46638257575758	0.30788352272727	9.4378156565657	9.4558971176076		
18	16033	1497119692	0.28009406887755	0.10642538265306	9.4703045280612	9.4770068904744		
19	16033	1497119693	0.095722853535354	0.054805871212121	9.5242266414141	9.5254153721526		
20	16033	1497119694	0.2459765625	0.430703125	9.405546875	9.4252975977057		
21	16033	1497119695	0.7377734375	0.42546875	9.4731640625	9.520569658339		
22	16033	1497119696	0.930859375	0.455546875	9.274453125	9.3495528390378		
23	16033	1497119697	1.4516256313131	0.4899384469697	9.2923768939394	9.4237773633296		
24	16033	1497119698	1.4487058080808	0.58416193181818	9.3028330176768	9.4358583402569		
25	16033	1497119699	0.69866071428571	0.91310586734694	9.3064413265306	9.3860899267162		
26	16033	1497119700	0.72518150252525	0.70746527777778	9.3697916666667	9.4257649364732		
27	16033	1497119701	0.7522490530303	0.64595170454545	9.3632417929293	9.4160170460345		
28	16033	1497119702	0.723984375	0.679609375	9.37125	9.4244215233391		
29	16033	1497119703	0.6746826171875	0.7662353515625	9.3833414713542	9.4417110737389		
30	16033	1497119704	0.6741796875	0.802890625	9.324765625	9.3848540469888		
31	16033	1497119705	0.89984375	0.8767578125	9.28953125	9.3803263139092		
32	16033	1497119706	0.82603092783505	0.80283505154639	9.3420989046392	9.4136100947303		
33	16033	1497119707	0.8308203125	1.016171875	9.3203515625	9.4772318256125		
34	16033	1497119708	0.66959313118812	0.1586478960396	9.4916073638614	9.5256377892606		
35	16033	1497119709	1.1123550257732	0.18097615979381	9.3888128221649	9.4608134849957		
36	16033	1497119710	0.84266707920792	0.26608910891089	9.4140625	9.4561987784087		
37	16033	1497119711	0.937265625	0.1922265625	9.3924609375	9.4412610756857		
38	16033	1497119712	0.94247159090909	0.2338226010101	9.4015151515152	9.4518295165038		
39	16033	1497119713	0.9032421875	0.2804296875	9.4076171875	9.4552681947851		
40	16033	1497119714	0.79651256443299	0.31878221649485	9.3945715206186	9.4339531066174		
41	16033	1497119715	0.57106218434343	0.36292613636364	9.4457465277778	9.4726785529861		
42	16033	1497119716	0.5754176980198	0.37206064356436	9.3739557549505	9.4040464294982		
43	16033	1497119717	0.536171875	0.336484375	9.42125	9.4471090893953		
44	16033	1497119718	0.7043359375	0.5055078125	9.44296875	9.5001491923497		
45	16033	1497119719	0.4458203125	0.8276171875	9.3364453125	9.3896488203269		
46	16033	1497119720	0.37234375	0.826953125	9.3616015625	9.405883863579		
47	16033	1497119721	0.41912468112245	0.83163265306122	9.3634406887755	9.4101576353218		
48	16033	1497119722	0.5530303030303	0.80563446969697	9.3564946338384	9.4078865444089		
49	16033	1497119723	0.53847064393939	0.72833806818182	9.3635969065657	9.4076328931753		
50	16033	1497119724	0.59307922979798	0.64034880050505	9.3833254419192	9.4243016609365		
51	16033	1497119725	0.63443023989899	0.5931976010101	9.3789457070707	9.4193615457032		
52	16033	1497119726	0.60626594387755	0.59367028061224	9.3674266581633	9.406051193899		
53	16033	1497119727	0.61134785353535	0.51763731060606	9.4057765151515	9.4400889330309		
54	16033	1497119728	0.61124674479167	0.51155598958333	9.4001871744792	9.4341662907729		
55	16033	1497119729	0.7404296875	0.621015625	9.3508203125	9.4097364895479		
56	16033	1497119730	0.85421875	0.7107421875	9.4237890625	9.5050016510911		
57	16033	1497119731	0.907421875	1.071953125	9.5753515625	9.7224668535763		
58	16033	1497119732	1.0212279040404	0.93276515151515	9.2033222853535	9.3439318320639		
59	16033	1497119733	0.16674558080808	1.1059422348485	9.3409485479798	9.4140196025574		
60	16033	1497119734	0.27722772277228	0.80840037128713	9.3620436262376	9.4155797547988		
61	16033	1497119735	0.91244476010101	1.0912642045455	9.5417455808081	9.7489275058667		
62	16033	1497119736	1.343984375	1.32546875	8.9165234375	9.1693344943891	s	e
63	16033	1497119737	0.9709375	0.59890625	9.636328125	9.7291189657703		
64	16033	1497119738	0.4870703125	0.9787890625	9.378984375	9.4672720973184		
65	16033	1497119739	0.95667613636364	0.92660984848485	9.5707859848485	9.707919133961		
66	16033	1497119740	1.0536328125	3.0923046875	8.6063671875	9.3994377501659		
67	16033	1497119741	0.7008203125	2.1490625	9.069296875	9.3716941354038		
68	16033	1497119742	0.81190210459184	2.4582669005102	8.8230229591837	9.277114380232		
69	16033	1497119743	0.8076171875	2.0659765625	9.253125	9.5866037907661		
70	16033	1497119744	1.4308434311224	5.0232780612245	7.1308195153061	9.0469768663392		
71	16033	1497119745	0.81652582908163	3.1137197066327	8.7224968112245	9.3672320890429		
72	16033	1497119746	1.133083230198	2.1755878712871	8.9808941831683	9.4082714658254		
73	16033	1497119747	0.606875	0.772734375	9.3791796875	9.4547577563608		
74	16033	1497119748	0.2961328125	0.834921875	9.391328125	9.4352295533216		
75	16033	1497119749	0.19658801020408	0.759765625	9.3694993622449	9.4026951929118		
76	16033	1497119750	0.19658801020408	0.68435108418367	9.4038982780612	9.430959479394		
77	16033	1497119751	0.045178345959596	0.62910353535354	9.4051846590909	9.4266706593941		
78	16033	1497119752	0.0990625	0.6494921875	9.3990234375	9.4223664976355		
79	16033	1497119753	0.265625	0.70056029040404	9.3826546717172	9.41355401122		
80	16033	1497119754	0.3707350127551	0.7867506377551	9.3724489795918	9.4164046573315		
81	16033	1497119755	0.46298926767677	0.74072758838384	9.3825757575758	9.4235509284352		
82	16033	1497119756	0.48504577020202	0.69815340909091	9.3764993686869	9.4151446633289		
83	16033	1497119757	0.433046875	0.705859375	9.3808203125	9.4180473187556		
84	16033	1497119758	0.25844381313131	0.81786616161616	9.3565340909091	9.3981885454938		
85	16033	1497119759	0.19862085459184	0.82166772959184	9.3762755102041	9.4167169701592		
86	16033	1497119760	0.16860006313131	0.67664930555556	9.3971354166667	9.426691264353		
87	16033	1497119761	0.087709407216495	0.59741462628866	9.4113240979381	9.4308441774347		
88	16033	1497119762	0.087910760309278	0.63486630154639	9.3997261597938	9.4216589693676		
89	16033	1497119763	0.051788015463918	0.59753543814433	9.4044780927835	9.4237209222486		
90	16033	1497119764	0.065853851010101	0.64642518939394	9.4045138888889	9.4271620459464		
91	16033	1497119765	0.060132575757576	0.67416351010101	9.3968986742424	9.4213600100622		
92	16033	1497119766	0.060921717171717	0.63640309343434	9.4016335227273	9.4234728220861		
93	16033	1497119767	0.071986607142857	0.607421875	9.4086814413265	9.4286445929383		
94	16033	1497119768	0.1154908459596	0.6049163510101	9.4200599747475	9.4412243056186		
95	16033	1497119769	0.2517578125	0.5917578125	9.4116015625	9.4352689926448		
96	16033	1497119770	0.33905460858586	0.50583964646465	9.4093276515152	9.4296657574981		
97	16033	1497119771	0.36762152777778	0.46066130050505	9.4194681186869	9.4382634492181		
98	16033	1497119772	0.34052835051546	0.50257731958763	9.4170022551546	9.4374109754473		
99	16033	1497119773	0.285	0.563203125	9.4012890625	9.4226989236472		
100	16033	1497119774	0.19606218434343	0.55800189393939	9.404632260101	9.4234969836345		
101	16033	1497119775	0.8108428030303	0.60448232323232	9.374053030303	9.4374928875266	s	d
102	16033	1497119776	1.1056621287129	0.48893873762376	9.3942218440594	9.4804307014915		
103	16033	1497119777	0.53999837239583	0.268798828125	9.4698893229167	9.499420346868		
104	16033	1497119778	0.95876736111111	0.46109532828283	9.3987926136364	9.4738434337393		
105	16033	1497119779	0.28270991161616	0.30543718434343	9.4167455808081	9.4318569184434		
106	16033	1497119780	0.15617108585859	0.69953440656566	9.3847853535354	9.418763057099		
107	16033	1497119781	0.086216517857143	0.81640625	9.3871173469388	9.4240975675983		
108	16033	1497119782	0.61454387626263	0.56660353535354	9.401002209596	9.452167699221		
109	16033	1497119783	0.4171484375	0.555078125	9.4127734375	9.442435855028		
110	16033	1497119784	0.531640625	0.3694921875	9.440234375	9.4634753233424		
111	16033	1497119785	0.54999210858586	0.34110637626263	9.4369870580808	9.4598419061		
112	16033	1497119786	0.47920612373737	0.38443023989899	9.4356060606061	9.4563579335341		
113	16033	1497119787	0.43296875	0.2758203125	9.4503515625	9.4654992522215		
114	16033	1497119788	0.34588068181818	0.15439551767677	9.4562421085859	9.4662594397309		
115	16033	1497119789	0.27833017676768	0.15080492424242	9.4718671085859	9.4796645186584		
116	16033	1497119790	0.27769886363636	0.20939867424242	9.4631470959596	9.4741145265345		
117	16033	1497119791	0.226953125	0.3609765625	9.4397265625	9.4523438133064		
118	16033	1497119792	0.080390625	0.4640625	9.424140625	9.4368009797932		
119	16033	1497119793	0.0440625	0.443671875	9.429375	9.4405054534098		
120	16033	1497119794	0.0846875	0.4065625	9.4146875	9.4259404555825		
121	16033	1497119795	0.345078125	0.46125	9.4582421875	9.4883015177601		
122	16033	1497119796	0.23058832908163	0.42024075255102	9.4375797193878	9.4534734716902		
123	16033	1497119797	0.08577806122449	0.46121651785714	9.4373007015306	9.4498354844977		
124	16033	1497119798	0.0833203125	0.630625	9.359375	9.3823349309445		
125	16033	1497119799	0.090080492424242	0.91086647727273	9.2765546085859	9.3233133675066		
126	16033	1497119800	0.16234375	0.941796875	9.2769140625	9.328342888916		
127	16033	1497119801	0.28171875	0.66	9.311328125	9.3452905194508		
128	16033	1497119802	0.36474116161616	0.52840909090909	9.3187342171717	9.3431443845116		
129	16033	1497119803	0.42215119949495	0.50800978535354	9.3317155934343	9.3558560220673		
130	16033	1497119804	0.40166613520408	0.49701052295918	9.3787866709184	9.4011782237995		
131	16033	1497119805	0.49265625	0.49234375	9.418828125	9.4450297218997		
132	16033	1497119806	0.3396484375	0.5959765625	9.3705859375	9.398541036267		
133	16033	1497119807	0.96961805555556	0.52296401515152	9.3746054292929	9.4415236663128		
134	16033	1497119808	0.96961805555556	0.5083648989899	9.4645675505051	9.528810135453		
135	16033	1497119809	0.95107323232323	0.50958806818182	9.502959280303	9.5649801478227		
136	16033	1497119810	0.8029296875	0.5615234375	9.5815625	9.6363929052739		
137	16033	1497119811	0.60314078282828	0.53559027777778	9.5748500631313	9.6102597308587		
138	16033	1497119812	0.44163830445545	0.57924659653465	9.5614170792079	9.5924342987468		
139	16033	1497119813	0.098254145408163	0.59474649234694	9.3974410076531	9.4191762790245		
140	16033	1497119814	0.0441796875	0.6012109375	9.4083203125	9.429228146826		
141	16033	1497119815	0.073035037878788	0.57950599747475	9.4149700126263	9.4373814901525		
142	16033	1497119816	0.071318069306931	0.62836478960396	9.4168471534653	9.440287536613		
143	16033	1497119817	0.091438137755102	0.62440210459184	9.3932557397959	9.4197579783217		
144	16033	1497119818	0.2214453125	0.5306640625	9.4382421875	9.4622032764525		
145	16033	1497119819	0.25603693181818	0.56514362373737	9.4392755681818	9.4672001395791		
146	16033	1497119820	0.43769728535354	0.78858901515152	9.4209674873737	9.4805117317482		
147	16033	1497119821	0.30417455808081	0.79269255050505	9.5057212752525	9.5517409226978		
148	16033	1497119822	0.27690972222222	0.74096433080808	9.543639520202	9.5848638561574		
149	16033	1497119823	0.5802734375	0.5434375	9.5184765625	9.5620876007917		
150	16033	1497119824	0.3055859375	0.241796875	9.5932421875	9.6091031986198		
151	16033	1497119825	0.22921875	0.265390625	9.41484375	9.4257612075189		
152	16033	1497119826	0.6125	0.228359375	9.3528125	9.3892373173334		
153	16033	1497119827	1.4394333964646	0.36122948232323	9.4121685606061	9.5511395861263		
154	16033	1497119828	0.3826171875	1.2605859375	9.3072265625	9.4090183557445		
155	16033	1497119829	0.5873828125	1.2408984375	9.315078125	9.4255904568511		
156	16033	1497119830	0.6697265625	1.271171875	9.266640625	9.3845686331225		
157	16033	1497119831	0.622890625	1.310078125	9.2290625	9.3497307912844		
158	16033	1497119832	0.6512890625	1.3395703125	9.285	9.4099629257987		
159	16033	1497119833	0.55192550505051	1.3195233585859	9.2201704545455	9.3362772577246		
160	16033	1497119834	0.50690498737374	1.3836410984848	9.2460542929293	9.365849995011		
161	16033	1497119835	0.4316796875	1.29765625	9.1937109375	9.2974448727746		
162	16033	1497119836	0.43359375	1.3712121212121	9.1462673611111	9.2622926239669		
163	16033	1497119837	0.48133680555556	1.3318734217172	9.2279829545455	9.3469586784487		
164	16033	1497119838	0.41678503787879	1.3090672348485	9.2255366161616	9.3341162613153		
165	16033	1497119839	0.39492582070707	1.021819760101	9.3499053030303	9.4213011585086		
166	16033	1497119840	0.33834438131313	1.0849116161616	9.3156960227273	9.3870176040412		
167	16033	1497119841	0.3914453125	1.3504296875	9.277578125	9.3905920248192		
168	16033	1497119842	0.4499362244898	1.3094706632653	9.2663424744898	9.38077034532		
169	16033	1497119843	0.34469696969697	1.3021622474747	9.2683475378788	9.3679257948999		
170	16033	1497119844	0.367578125	1.3463671875	9.2844140625	9.3935062084064		
171	16033	1497119845	0.294609375	1.2923828125	9.2670703125	9.3637319613192		
172	16033	1497119846	0.26609375	1.3201171875	9.294609375	9.394175078765		
173	16033	1497119847	0.36442550505051	1.3172348484848	9.2410037878788	9.3430768274257		
174	16033	1497119848	0.181796875	1.293515625	9.2650390625	9.3585445358754		
175	16033	1497119849	0.14931441326531	1.329759247449	9.2734773596939	9.3706105525088		
176	16033	1497119850	0.3106640625	1.3188671875	9.253359375	9.3579469210963		
177	16033	1497119851	0.389140625	1.3529296875	9.2692578125	9.3776042572177		
178	16033	1497119852	0.35479797979798	1.3175505050505	9.275726010101	9.3806877104221		
179	16033	1497119853	0.35828125	1.3330078125	9.2823828125	9.392614859501		
180	16033	1497119854	0.330390625	1.243046875	9.28453125	9.3791758804541		
181	16033	1497119855	0.37097537878788	1.0241871843434	9.2602982954545	9.3462621472497		
182	16033	1497119856	0.35511363636364	1.0892124368687	9.3963068181818	9.4963053581228		
183	16033	1497119857	0.3476953125	0.945234375	9.3723828125	9.4465406220645		
184	16033	1497119858	0.31494633838384	1.3020833333333	9.2684264520202	9.3759377203906		
185	16033	1497119859	0.245546875	1.42765625	9.2484765625	9.3738159304334		
186	16033	1497119860	0.18515625	1.837421875	9.145859375	9.3533144202577		
187	16033	1497119861	0.16402304292929	1.8071732954545	9.1915640782828	9.3882002152132		
188	16033	1497119862	0.2115234375	1.7161328125	9.105703125	9.2760047170626		
189	16033	1497119863	0.230859375	1.4818359375	9.2412109375	9.369023211036		
190	16033	1497119864	0.281484375	1.2974609375	9.2433203125	9.3397812892192		
191	16033	1497119865	0.27071496212121	1.3125	9.2729640151515	9.3709240351857		
192	16033	1497119866	0.21657986111111	1.3319917929293	9.2632970328283	9.3623785715006		
193	16033	1497119867	0.21006944444444	1.3314393939394	9.2715041035354	9.3696754559832		
194	16033	1497119868	0.2179296875	1.3084765625	9.2684375	9.3636278575031		
195	16033	1497119869	0.2252734375	1.313984375	9.261484375	9.3581410715573		
196	16033	1497119870	0.22214330808081	1.3131313131313	9.2834990530303	9.3821583480151		
197	16033	1497119871	0.14445233585859	1.4320943813131	9.2614820075758	9.3806073613426		
198	16033	1497119872	0.184609375	1.48984375	9.1866796875	9.3213313377529		
199	16033	1497119873	0.26377051767677	1.5200047348485	9.2194996843434	9.3525240039023		
200	16033	1497119874	0.3249609375	1.5408984375	9.1976171875	9.3364266561988		
201	16033	1497119875	0.3196875	1.5121875	9.2685546875	9.4055364820589		
202	16033	1497119876	0.280546875	1.509296875	9.2893359375	9.4247684343219		
203	16033	1497119877	0.316484375	1.532421875	9.2525390625	9.3934516750257		
204	16033	1497119878	0.32095025510204	1.5452806122449	9.2424266581633	9.3828142432982		
205	16033	1497119879	0.3448547979798	1.5379577020202	9.2517361111111	9.396110128819		
206	16033	1497119880	0.26171875	1.470390625	9.323359375	9.4483394035389		
207	16033	1497119881	0.23914930555556	1.3914141414141	9.3693181818182	9.4810184849471		
208	16033	1497119882	0.1402734375	1.3373046875	9.3051953125	9.4080679204519		
209	16033	1497119883	0.1037890625	1.317109375	9.292734375	9.3892078524728		
210	16033	1497119884	0.10606060606061	1.3162089646465	9.2971117424242	9.3925465189263		
211	16033	1497119885	0.09046875	1.321484375	9.2502734375	9.3463675637786		
212	16033	1497119886	0.091777146464646	1.3283617424242	9.2756470959596	9.3722761967283		
213	16033	1497119887	0.0867578125	1.3200390625	9.27015625	9.3647250344258		
214	16033	1497119888	0.12198329207921	1.2851175742574	9.2681775990099	9.3599389292715		
215	16033	1497119889	0.15522411616162	1.0121527777778	9.3466303661616	9.4094855548503		
216	16033	1497119890	0.15699968434343	0.83088699494949	9.346038510101	9.396898003971		
217	16033	1497119891	0.1472265625	0.79140625	9.4146484375	9.4579473165001		
218	16033	1497119892	0.12586805555556	0.78559027777778	9.3634785353535	9.4001318364502		
219	16033	1497119893	0.12519929846939	0.87404336734694	9.4117107780612	9.4573414317545		
220	16033	1497119894	0.1196484375	1.14890625	9.3000390625	9.3750467083236		
221	16033	1497119895	0.12168560606061	1.3006234217172	9.2631786616162	9.3564361734267		
222	16033	1497119896	0.150390625	1.3275390625	9.254375	9.3531578473753		
223	16033	1497119897	0.2191015625	1.33734375	9.2197265625	9.3234121301882		
224	16033	1497119898	0.1509375	1.3308203125	9.285234375	9.3852924345769		
225	16033	1497119899	0.17148042929293	1.3671085858586	9.2677951388889	9.3735004342557		
226	16033	1497119900	0.1422265625	1.333359375	9.2768359375	9.3758565685525		
227	16033	1497119901	0.1394921875	1.33296875	9.2724609375	9.3704548318493		
228	16033	1497119902	0.277109375	1.3233984375	9.2628515625	9.3653791902272		
229	16033	1497119903	0.42309816919192	1.3213383838384	9.2875236742424	9.3920286275583		
230	16033	1497119904	0.6207421875	1.3042578125	9.2878125	9.4016236373019		
231	16033	1497119905	0.8176953125	1.29625	9.2863671875	9.4131878089854		
232	16033	1497119906	0.9424609375	1.3288671875	9.253046875	9.3962697455658		
233	16033	1497119907	0.9190625	1.317734375	9.2680078125	9.4071200044822		
234	16033	1497119908	0.65364583333333	1.3228717672414	9.2805765086207	9.3982583845224		
235	16033	1497119909	0.63431803385417	1.3221435546875	9.2762858072917	9.3922095006161		
236	16033	1497119910	0.96595982142857	1.321946747449	9.2662228954082	9.4099411709316		
237	16033	1497119911	0.74297664141414	1.322877209596	9.2761994949495	9.4021804161062		
238	16033	1497119912	0.842734375	1.321015625	9.2677734375	9.4006684818391		
239	16033	1497119913	0.14132116336634	1.3260751856436	9.2660117574257	9.3641424090491		
240	16033	1497119914	0.053278028350515	1.3197084407216	9.2724307345361	9.3660669683424		
241	16033	1497119915	0.068418560606061	1.3308080808081	9.2677951388889	9.3636100268539	s	s
242	16033	1497119916	0.16540404040404	1.3113557449495	9.2776199494949	9.3735027283876		
243	16033	1497119917	1.082890625	1.6408984375	10.1521875	10.555324749189		
244	16033	1497119918	2.033984375	1.41890625	8.3894921875	9.1622919028455		
245	16033	1497119919	0.88883131377551	0.82637117346939	9.3467394770408	9.4941486115519		
246	16033	1497119920	0.39980670103093	0.61493234536082	9.3930009664948	9.4327135186422		
247	16033	1497119921	0.61951546717172	0.83597695707071	9.2937578914141	9.3728820829712		
248	16033	1497119922	0.393203125	1.2503515625	9.2965625	9.3980408671591		
249	16033	1497119923	0.2364453125	1.437109375	9.250078125	9.3776043975234		
250	16033	1497119924	0.34622130102041	1.0883689413265	9.3632413903061	9.4406473265423		
251	16033	1497119925	0.10515625	1.20296875	9.2563671875	9.335612336432		
252	16033	1497119926	0.3431640625	1.046796875	9.271796875	9.3461796210734		
253	16033	1497119927	0.70499840561224	0.64281728316327	9.4508131377551	9.5245013418667		
254	16033	1497119928	0.29691445707071	0.53716856060606	9.3936237373737	9.4153346253221		
255	16033	1497119929	0.290078125	0.58125	9.3916796875	9.4146049157016		
256	16033	1497119930	0.30481216755319	0.59599401595745	9.3901678856383	9.4144302457507		
257	16033	1497119931	0.338046875	0.7267578125	9.36078125	9.3953064379086		
258	16033	1497119932	0.32314253826531	0.7160794005102	9.3628029336735	9.3960492189882		
259	16033	1497119933	0.27142396907216	0.62689271907216	9.3853898195876	9.4104328978687		
260	16033	1497119934	0.2105712890625	0.73905436197917	9.3682454427083	9.4010437424786		
261	16033	1497119935	0.15144856770833	0.75130208333333	9.3666178385417	9.3981885462657		
262	16033	1497119936	0.15782055412371	0.68830541237113	9.3781411082474	9.4047795850671		
263	16033	1497119937	0.1534485479798	0.68690814393939	9.3742503156566	9.4010897338416		
264	16033	1497119938	0.33695475260417	0.702880859375	9.3661295572917	9.4037249879239		
265	16033	1497119939	0.99258609693878	0.67283163265306	9.3606505102041	9.4417327268608	s	d
266	16033	1497119940	0.89797339108911	0.5871364480198	9.3785194925743	9.4459907941011		
267	16033	1497119941	0.85365372474747	0.63995422979798	9.368529040404	9.4320317317178		
268	16033	1497119942	0.678984375	0.59328125	9.3883984375	9.4345942357256		
269	16033	1497119943	0.65708705357143	0.60471141581633	9.3852040816327	9.4297249472209		
270	16033	1497119944	0.76321811868687	0.6227904040404	9.3817866161616	9.4346971726104		
271	16033	1497119945	1.1023198341837	0.57629145408163	9.3847257653061	9.4719939074639		
272	16033	1497119946	1.3553515625	0.5498046875	9.3848828125	9.5013608027228		
273	16033	1497119947	1.4043975515464	0.46440077319588	9.370006443299	9.488031261711		
274	16033	1497119948	1.3926767676768	0.41374684343434	9.3936631944444	9.5072925438658		
275	16033	1497119949	1.02859375	0.4340625	9.3925	9.4613556459921		
276	16033	1497119950	0.58132102272727	0.46768465909091	9.3780381944444	9.4139696905611		
277	16033	1497119951	0.4417578125	0.6943359375	9.3716015625	9.4102215269489		
278	16033	1497119952	0.3625	0.6418359375	9.4091015625	9.4417847453223		
279	16033	1497119953	0.1866015625	0.60328125	9.20796875	9.2339802720406		
280	16033	1497119954	0.078005420918367	0.56198182397959	9.1900510204082	9.2088454282245		
281	16033	1497119955	0.14441167091837	0.60953443877551	9.1331712372449	9.1575194654731		
282	16033	1497119956	0.26771622474747	0.78164457070707	9.2241161616162	9.2635342174252		
283	16033	1497119957	0.21878945707071	0.73070549242424	9.3381470959596	9.3707383656874		
284	16033	1497119958	0.19328125	0.748984375	9.3528125	9.3858325756148		
285	16033	1497119959	1.0379182449495	0.8493134469697	9.2681502525253	9.3738486990502		
286	16033	1497119960	0.86253156565657	1.0114030934343	9.3136837121212	9.4120289044		
287	16033	1497119961	0.250625	0.69484375	9.451015625	9.4883241844105		
288	16033	1497119962	0.0706640625	0.6359375	9.476796875	9.4999273996509		
289	16033	1497119963	0.10456123737374	0.62989267676768	9.4893860479798	9.5158285331981		
290	16033	1497119964	0.1368359375	0.6155078125	9.51484375	9.5405090654615		
291	16033	1497119965	0.295234375	0.606484375	9.522265625	9.5510780362632		
292	16033	1497119966	0.29044349747475	0.65321180555556	9.3776436237374	9.4076595034198		
293	16033	1497119967	0.29936079545455	0.76807133838384	9.3767755681818	9.416280079682		
294	16033	1497119968	0.201171875	0.9380078125	9.3581640625	9.4155651435416		
295	16033	1497119969	0.240703125	1.2444140625	9.45484375	9.55237201845		
296	16033	1497119970	0.25327493686869	1.1912484217172	9.4429450757576	9.5338391884909		
297	16033	1497119971	0.22241709183673	1.2830436862245	9.5007971938776	9.5947468296617		
298	16033	1497119972	0.1680078125	1.258828125	9.467421875	9.5601273882431		
299	16033	1497119973	0.1842578125	1.3152734375	9.470390625	9.5793058600225		
300	16033	1497119974	0.18742108585859	1.3919270833333	9.483033459596	9.6046986680891		
301	16033	1497119975	0.16587752525253	1.3207070707071	9.4764046717172	9.5809147428		
302	16033	1497119976	0.1882174744898	1.2237324617347	9.478834502551	9.571561360573		
303	16033	1497119977	0.2020807549505	1.2925433168317	9.470026299505	9.5687867362173		
304	16033	1497119978	0.2684765625	1.268203125	9.45046875	9.5447846512483		
305	16033	1497119979	0.261875	1.2671484375	9.4180859375	9.5127216696534		
306	16033	1497119980	0.311484375	1.27421875	9.393203125	9.4967079634009		
307	16033	1497119981	0.31403882575758	1.280303030303	9.3848248106061	9.4868929258114		
308	16033	1497119982	0.32561107673267	1.3392636138614	9.3636293316832	9.4740056413491		
309	16033	1497119983	0.40122767857143	1.3562659438776	9.443678252551	9.5683406000526		
310	16033	1497119984	0.34232954545455	1.1720722853535	9.325165719697	9.4192765670369		
311	16033	1497119985	0.24913194444444	0.91418087121212	9.4076309974747	9.4611749261732		
312	16033	1497119986	0.16953930412371	0.68327158505155	9.3588514819588	9.3925688491294		
313	16033	1497119987	0.33290816326531	0.7253268494898	9.411790497449	9.4482133231309		
314	16033	1497119988	0.677421875	0.6973046875	9.5026953125	9.5563015334749		
315	16033	1497119989	0.68686224489796	0.65577168367347	9.4631297831633	9.5139210429605		
316	16033	1497119990	0.68173731435644	0.66912902227723	9.4999613242574	9.5549163560672		
317	16033	1497119991	0.68702651515152	0.64050662878788	9.3841934974747	9.4340513851938		
318	16033	1497119992	0.58504795792079	0.70405321782178	9.3932936262376	9.4425367424095		
319	16033	1497119993	0.32062815656566	0.61624053030303	9.3864820075758	9.4179319372224		
320	16033	1497119994	0.32800418814433	0.75821520618557	9.3866382087629	9.4263273205937		
321	16033	1497119995	0.1831640625	0.9851171875	9.3514453125	9.4124228844509		
322	16033	1497119996	0.0983984375	1.292578125	9.33	9.4247064950888		
323	16033	1497119997	0.50382733585859	1.0264362373737	9.3382654671717	9.4133664558235		
324	16033	1497119998	0.47979113520408	0.76056281887755	9.3933753188776	9.4406077963081		
325	16033	1497119999	0.3487004950495	0.58586014851485	9.4112391707921	9.4386739373774		
326	16033	1497120000	0.32331123737374	0.56577493686869	9.4344618055556	9.4589225434315		
327	16033	1497120001	0.35345643939394	0.40853851010101	9.427398989899	9.4452164779783		
328	16033	1497120002	0.3739453125	0.3860546875	9.383359375	9.4014397695417		
329	16033	1497120003	0.35704703282828	0.47005208333333	9.3693970959596	9.3920364617359		
330	16033	1497120004	0.2796875	0.550390625	9.3808984375	9.4054570439981		
331	16033	1497120005	0.21535669191919	0.61276830808081	9.3609532828283	9.3862731006657		
332	16033	1497120006	0.089147586633663	0.76303372524752	9.3443301361386	9.3768117507115		
333	16033	1497120007	0.11300505050505	0.78594539141414	9.3508522727273	9.3858906537216		
334	16033	1497120008	0.410390625	0.83015625	9.3822265625	9.4285796234088		
335	16033	1497120009	0.43517203282828	0.83802872474747	9.392913510101	9.4409966009557		
336	16033	1497120010	0.4256640625	0.8105859375	9.392109375	9.4371900860848		
337	16033	1497120011	0.47928503787879	0.81691919191919	9.3727904040404	9.4215281939496		
338	16033	1497120012	0.47126392326733	0.87998917079208	9.383083230198	9.4366141056091		
339	16033	1497120013	0.50098642676768	0.85819128787879	9.3915325126263	9.4445310319104		
340	16033	1497120014	0.7846875	0.8072265625	9.3896875	9.457926624298		
341	16033	1497120015	1.0664859693878	0.86758609693878	9.3672672193878	9.4717627989745		
342	16033	1497120016	1.415	0.53515625	9.4161328125	9.5374076697356		
343	16033	1497120017	1.1960546875	0.508515625	9.3957421875	9.4936971499244		
344	16033	1497120018	0.66512784090909	0.79805871212121	9.3937026515152	9.4633467524578		
345	16033	1497120019	0.3247711489899	0.95509785353535	9.3239425505051	9.3832365878016	s	s
346	16033	1497120020	0.35713180693069	0.93324566831683	9.353380259901	9.410272476752		
347	16033	1497120021	0.25503382731959	0.89118878865979	9.3635631443299	9.4103193436826		
348	16033	1497120022	0.33872215346535	0.89712252475248	9.366646039604	9.4180987653586		
349	16033	1497120023	0.35411352040816	0.91597576530612	9.3761160714286	9.4297419370046		
350	16033	1497120024	0.3896987757732	0.91909632731959	9.3645699097938	9.4207662810676		
351	16033	1497120025	0.36671401515152	0.90273832070707	9.3624131944444	9.414156887417		
352	16033	1497120026	0.39354482323232	0.95600536616162	9.3507339015152	9.4078461154031		
353	16033	1497120027	0.40353954081633	0.97799744897959	9.337890625	9.3977098487365		
354	16033	1497120028	0.4156568877551	0.99230707908163	9.3373724489796	9.3996567537183		
355	16033	1497120029	0.39090119949495	0.95182291666667	9.3483664772727	9.4056201105617		
356	16033	1497120030	0.3702734375	0.9704296875	9.346015625	9.4038267016426		
357	16033	1497120031	0.3695068359375	1.0009358723958	9.3444010416667	9.4052689023798		
358	16033	1497120032	0.35866477272727	0.98106060606061	9.3456833964646	9.4039725709925		
359	16033	1497120033	0.35744160353535	0.95450599747475	9.3523516414141	9.407917924478		
360	16033	1497120034	0.37890625	1.0080886994949	9.3400804924242	9.4021297780932		
361	16033	1497120035	0.37231691919192	0.97900883838384	9.3438289141414	9.4024824439655		
362	16033	1497120036	0.37322443181818	0.95249368686869	9.3577967171717	9.4138144482642		
363	16033	1497120037	0.39429450757576	1.0117582070707	9.3344381313131	9.3977038611813		
364	16033	1497120038	0.3862109375	0.980390625	9.348359375	9.4077171268594		
365	16033	1497120039	0.39212436868687	0.98591382575758	9.3431186868687	9.4033354508601		
366	16033	1497120040	0.3928740530303	0.96354166666667	9.3437894570707	9.4019214841159		
367	16033	1497120041	0.56403882575758	0.96006944444444	9.3325441919192	9.4063994565488		
368	16033	1497120042	1.2426609848485	0.80350378787879	9.3567313762626	9.4756149257542		
369	16033	1497120043	1.6108349116162	0.71732954545455	9.3484453914141	9.5136207030879		
370	16033	1497120044	1.5828203914141	0.70896464646465	9.3552714646465	9.5151999102733		
371	16033	1497120045	1.4353693181818	0.71294981060606	9.3509311868687	9.4879888477975		
372	16033	1497120046	1.2516015625	0.7459375	9.3580078125	9.4715375263442		
373	16033	1497120047	1.3304068688119	0.73743038366337	9.3693533415842	9.4928083066724		
374	16033	1497120048	1.3453515625	0.744296875	9.350078125	9.4764757636441		
375	16033	1497120049	1.3234375	0.74796875	9.252734375	9.3772641855116		
376	16033	1497120050	1.2679924242424	0.72624684343434	9.3250078914141	9.4397008984218		
377	16033	1497120051	1.2441998106061	0.66891571969697	9.3718434343434	9.4788866639246		
378	16033	1497120052	1.1278409090909	0.73449337121212	9.3827730429293	9.4807641845865		
379	16033	1497120053	0.97289299242424	0.64157196969697	9.3891256313131	9.4630151830814		
380	16033	1497120054	0.9379296875	0.7566796875	9.3000390625	9.3818866393894		
381	16033	1497120055	0.89904155927835	0.84842139175258	9.2699742268041	9.3584654398385		
382	16033	1497120056	0.84757889851485	0.94032332920792	9.2566522277228	9.3470969489167		
383	16033	1497120057	0.74093911082474	1.0403108891753	9.2207232603093	9.3154208421874		
384	16033	1497120058	0.70859375	1.0289453125	9.321015625	9.4142578593308		
385	16033	1497120059	0.6580078125	1.2087890625	9.450546875	9.5529559204778		
386	16033	1497120060	0.2967529296875	1.2300211588542	9.5160725911458	9.6086251212306		
387	16033	1497120061	0.2358833539604	1.242458230198	9.489828279703	9.5907219772578	s	d
388	16033	1497120062	0.27997448979592	1.2619579081633	9.562181122449	9.6670645699161		
389	16033	1497120063	0.142578125	1.1946875	9.5251953125	9.6061020270676		
390	16033	1497120064	0.1847265625	0.95265625	9.5116015625	9.5723298021673		
391	16033	1497120065	0.11232461734694	0.96847098214286	9.5049027423469	9.557328970161		
392	16033	1497120066	0.112890625	0.8684375	9.53359375	9.5771299960649		
393	16033	1497120067	0.142578125	0.8055859375	9.4573046875	9.496959439979		
394	16033	1497120068	0.08917297979798	0.93351483585859	9.3285195707071	9.3809765649088		
395	16033	1497120069	0.11046875	1.0830859375	9.3986328125	9.4654278751147		
396	16033	1497120070	0.098682133838384	1.2361900252525	9.331084280303	9.4223325178039		
397	16033	1497120071	0.131015625	1.244296875	9.331875	9.420067978652		
398	16033	1497120072	0.21827651515152	1.2849984217172	9.3905855429293	9.4956472658993		
399	16033	1497120073	0.593046875	1.2509765625	9.2326953125	9.3484868768904		
400	16033	1497120074	0.81597222222222	1.1925505050505	9.2069128787879	9.3561681789042		
401	16033	1497120075	0.43913424744898	0.92378826530612	9.3028539540816	9.3722547607406		
402	16033	1497120076	0.120546875	0.8587890625	9.3346875	9.3804964167549		
403	16033	1497120077	0.1428125	0.8716796875	9.3373828125	9.3830342909723		
404	16033	1497120078	0.051179846938776	0.91701211734694	9.3163265306122	9.363789080139		
405	16033	1497120079	0.0634765625	0.960546875	9.42125	9.4717419852903		
406	16033	1497120080	0.069874043367347	0.94196428571429	9.368821747449	9.4182959058629		
407	16033	1497120081	0.22918009020619	0.99254993556701	9.3799532860825	9.4371219175322		
408	16033	1497120082	0.47502367424242	1.0149936868687	9.3652935606061	9.4347666655381		
409	16033	1497120083	0.48788667929293	1.1168323863636	9.2543797348485	9.3357186052559		
410	16033	1497120084	0.3136989480198	1.267172029703	9.3180693069307	9.4109573570714		
411	16033	1497120085	0.21747448979592	1.2339365433673	9.3452646683673	9.4297552132239		
412	16033	1497120086	0.284765625	1.2187109375	9.329609375	9.4140826026206		
413	16033	1497120087	0.4923828125	1.253515625	9.339296875	9.4369930472726		
414	16033	1497120088	0.51657196969697	1.2597064393939	9.3502604166667	9.449787462978		
415	16033	1497120089	0.388203125	1.2753515625	9.3203125	9.4155440379511		
416	16033	1497120090	0.67061237373737	1.2172900883838	9.3553898358586	9.4598391648387		
417	16033	1497120091	0.88524394132653	1.0439652423469	9.3892299107143	9.4890042537747		
418	16033	1497120092	0.55101799242424	0.98457228535354	9.3966224747475	9.4685489681301		
419	16033	1497120093	0.6405078125	1.1570703125	9.337265625	9.4467426121827		
420	16033	1497120094	0.3622265625	1.17546875	9.3017578125	9.3868875783055	s	s
421	16033	1497120095	0.29556002475248	1.1052366955446	9.3371364480198	9.4103854677581		
422	16033	1497120096	0.3375318877551	1.116868622449	9.3180803571429	9.3925937707045		
423	16033	1497120097	0.453125	1.1965356691919	9.2891808712121	9.3804509719396		
424	16033	1497120098	0.4152734375	1.1648828125	9.3236328125	9.4072383519279		
425	16033	1497120099	0.38432716836735	1.2367665816327	9.2783801020408	9.3714924843698		
426	16033	1497120100	0.26046875	1.3278125	9.2820703125	9.3814271241321		
427	16033	1497120101	0.26976799242424	1.306029040404	9.2926136363636	9.3897000594493		
428	16033	1497120102	0.3178515625	1.29703125	9.295703125	9.3912988228363		
429	16033	1497120103	0.28960396039604	1.240640470297	9.3097540222772	9.3966885272637		
430	16033	1497120104	0.297265625	1.2255078125	9.3013671875	9.3866161227021		
431	16033	1497120105	0.31133215206186	1.324943621134	9.2881362757732	9.3873854679158		
432	16033	1497120106	0.3206640625	1.3285546875	9.29078125	9.3908830777755		
433	16033	1497120107	0.3214172979798	1.2871685606061	9.2950599747475	9.389358986415		
434	16033	1497120108	0.33267557989691	1.3636839561856	9.2760148195876	9.3817157062217		
435	16033	1497120109	0.3162109375	1.390078125	9.2766796875	9.3857149888373		
436	16033	1497120110	0.32836662371134	1.375362435567	9.26953125	9.3768646286738		
437	16033	1497120111	0.32796556122449	1.3657924107143	9.2744738520408	9.3804375479042		
438	16033	1497120112	0.33435179455446	1.3526840965347	9.2737855816832	9.3781433892257		
439	16033	1497120113	0.34923453282828	1.403685290404	9.2658617424242	9.3781892819763		
440	16033	1497120114	0.34328125	1.3808984375	9.27125	9.3799162019582		
441	16033	1497120115	0.4055078125	1.366328125	9.27359375	9.384333710216		
442	16033	1497120116	1.2191015625	1.356171875	9.20703125	9.3885224652276	s	d
443	16033	1497120117	1.526705994898	1.371731505102	9.227200255102	9.4599319664579		
444	16033	1497120118	1.0359848484848	1.4380129419192	9.2724510732323	9.4591045930089		
445	16033	1497120119	0.83964445153061	1.4819834183673	9.2780612244898	9.4408715766102		
446	16033	1497120120	1.4897509282178	1.5276531559406	9.193494740099	9.4390376399912		
447	16033	1497120121	1.5450599747475	1.4314630681818	9.2080965909091	9.4512736423672		
448	16033	1497120122	1.4125390625	1.392421875	9.25609375	9.4746001542753		
449	16033	1497120123	1.230546875	1.38125	9.25171875	9.4360118144322		
450	16033	1497120124	1.0865293560606	1.4153251262626	9.2655066287879	9.4365245118103		
451	16033	1497120125	0.99222617574257	1.252359220297	9.3070080445545	9.4460741331417		
452	16033	1497120126	0.63222064393939	1.0769412878788	9.3280855429293	9.4239294046103		
453	16033	1497120127	0.72015625	0.9875390625	9.3683203125	9.4546365621565		
454	16033	1497120128	0.91140625	0.925078125	9.37984375	9.4737033216849		
455	16033	1497120129	0.711015625	0.8170703125	9.4155078125	9.4810738409493		
456	16033	1497120130	0.6211328125	0.7514453125	9.4301171875	9.4850098526887		
457	16033	1497120131	0.35120738636364	0.76716382575758	9.4384864267677	9.4827067432351		
458	16033	1497120132	0.17163825757576	0.67814867424242	9.4628314393939	9.4934996472935		
459	16033	1497120133	0.23720503826531	0.7523118622449	9.447903380102	9.4855452386899		
460	16033	1497120134	0.27730429292929	0.70825441919192	9.4494160353535	9.4880778674673		
461	16033	1497120135	0.2137109375	0.746796875	9.4496875	9.4909444178147		
462	16033	1497120136	0.296953125	0.6798828125	9.431328125	9.4660276994797		
463	16033	1497120137	0.30630523989899	0.63790246212121	9.4489030934343	9.4796500829687		
464	16033	1497120138	0.2604296875	0.660859375	9.44484375	9.4769903922559		
465	16033	1497120139	0.28786670918367	0.68176020408163	9.4450334821429	9.4772902147176		
466	16033	1497120140	0.2836328125	0.6973828125	9.4759765625	9.5184563076574		
467	16033	1497120141	0.25340346534653	0.61235303217822	9.4522741336634	9.483492355928		
468	16033	1497120142	0.22324810606061	0.6088226010101	9.481810290404	9.5063680706315		
469	16033	1497120143	0.2454296875	0.6469921875	9.4575	9.4908109738994		
470	16033	1497120144	0.2125	0.7025390625	9.4646875	9.4992827515614		
471	16033	1497120145	0.1746875	0.558828125	9.4887109375	9.5125736254997		
472	16033	1497120146	0.11312342171717	0.73023200757576	9.4629103535354	9.4967654894533		
473	16033	1497120147	0.110859375	0.774609375	9.405703125	9.4452724448675		
474	16033	1497120148	0.1330859375	1.031328125	9.372265625	9.4357451555033		
475	16033	1497120149	0.1790234375	1.2071484375	9.3447265625	9.4266387039188		
476	16033	1497120150	0.09819771039604	1.2296178836634	9.3273514851485	9.412099793038		
477	16033	1497120151	0.085494523195876	1.2473824097938	9.3118153994845	9.3998780641419		
478	16033	1497120152	0.1883984375	1.262890625	9.325625	9.421339000981		
479	16033	1497120153	0.61484375	1.142421875	9.3126953125	9.4081702598707		
480	16033	1497120154	0.565	1.431484375	9.2344140625	9.3645875918227		
481	16033	1497120155	0.34108137376238	1.585396039604	9.2811726485149	9.4274343222004		
482	16033	1497120156	0.36195231958763	1.4825628221649	9.2433956185567	9.3718005455828		
483	16033	1497120157	0.3357421875	1.4777734375	9.280390625	9.4079005081612		
484	16033	1497120158	0.33171875	1.58359375	9.246953125	9.3926452143072		
485	16033	1497120159	0.2330078125	1.6165625	9.2703125	9.419385397288		
486	16033	1497120160	0.1851171875	1.47921875	9.3059765625	9.4346930509369		
487	16033	1497120161	0.22500797193878	1.3753985969388	9.3102678571429	9.4203124207319		
488	16033	1497120162	0.2311328125	1.2790234375	9.3362109375	9.4310347073259		
489	16033	1497120163	0.2528014520202	1.317747790404	9.3291508838384	9.4296877408107		
490	16033	1497120164	0.2025	1.2651171875	9.3387109375	9.4293351743581		
491	16033	1497120165	0.2247265625	1.1874609375	9.363125	9.4431108993514		
492	16033	1497120166	0.26463857323232	1.1403882575758	9.3416587752525	9.4170322673702		
493	16033	1497120167	0.58453125	0.971796875	9.39265625	9.464266693529		
494	16033	1497120168	0.57536300505051	0.99167455808081	9.4388020833333	9.5112909999985		
495	16033	1497120169	0.54189253826531	1.0505420918367	9.3914221938776	9.4688251542271		
496	16033	1497120170	0.40226483585859	1.1362058080808	9.3631628787879	9.4417249112771		
497	16033	1497120171	0.3965625	1.0840234375	9.386015625	9.457525285782		
498	16033	1497120172	0.56625	1.016953125	9.398046875	9.4705626908995		
499	16033	1497120173	0.66753472222222	1.0386679292929	9.4057370580808	9.4868416620916		
500	16033	1497120174	0.7378125	0.9933984375	9.3989453125	9.4802591635954		
501	16033	1497120175	0.86182133838384	0.95900410353535	9.3992660984848	9.4879373018395		
502	16033	1497120176	0.51032642326733	0.98503248762376	9.3926748143564	9.4638779832297	s	s
503	16033	1497120177	0.61296559343434	0.91520675505051	9.3751972853535	9.4629869812412		
504	16033	1497120178	0.22226167929293	0.81912878787879	9.3889283459596	9.4290632334134		
505	16033	1497120179	0.265625	0.84578125	9.4016015625	9.4480247615353		
506	16033	1497120180	0.493359375	1.542109375	9.2169921875	9.37892596951		
507	16033	1497120181	0.8395703125	1.423984375	9.22703125	9.3935697733088		
508	16033	1497120182	0.31317077020202	0.99711963383838	9.3369239267677	9.407369284004		
509	16033	1497120183	0.71171101485149	1.2919631806931	9.2659344059406	9.4422065897705		
510	16033	1497120184	0.28946520618557	1.1812983247423	9.3419378221649	9.4241525269586		
511	16033	1497120185	0.2839205994898	1.2101403061224	9.3223453443878	9.4057646296547		
512	16033	1497120186	0.33668718434343	1.2142913510101	9.3018860479798	9.3871277767276		
513	16033	1497120187	0.39634627525253	1.2124368686869	9.2910353535354	9.3796745774016		
514	16033	1497120188	0.67895266089109	1.0962639232673	9.4598932549505	9.5678297136543		
515	16033	1497120189	0.84998421717172	1.3315183080808	9.1070470328283	9.2816085074398		
516	16033	1497120190	0.60961174242424	1.1874605429293	9.2944286616162	9.408066344859		
517	16033	1497120191	0.43136160714286	0.98728475765306	9.3635204081633	9.4279289176747		
518	16033	1497120192	0.45551658163265	1.0271444515306	9.3371332908163	9.404757051773		
519	16033	1497120193	0.45545296717172	1.0275410353535	9.3351089015152	9.4026792609755		
520	16033	1497120194	0.4771875	1.028515625	9.337578125	9.4063416312889		
521	16033	1497120195	0.4638671875	1.0085546875	9.3389453125	9.404903189303		
522	16033	1497120196	0.43120216836735	1.0016741071429	9.3486128826531	9.4125325098275		
523	16033	1497120197	0.389609375	1.05546875	9.3399609375	9.4080985204029		
524	16033	1497120198	0.35088488520408	1.0353156887755	9.3331074617347	9.3973103806945		
525	16033	1497120199	0.30552455357143	0.9375	9.3535554846939	9.4055999099735		
526	16033	1497120200	1.1287089646465	0.91753472222222	9.3317550505051	9.4527403901302	s	d
527	16033	1497120201	1.2322265625	0.776953125	9.37578125	9.4960930829692		
528	16033	1497120202	1.1618359375	0.7464453125	9.3846875	9.4878378037733		
529	16033	1497120203	1.0937894570707	0.69101167929293	9.396819760101	9.4872853328557		
530	16033	1497120204	1.1083386479592	0.60805963010204	9.4158561862245	9.5013522202118		
531	16033	1497120205	0.99960140306122	0.69427614795918	9.4006297831633	9.4803823478414		
532	16033	1497120206	0.93738042091837	0.72444993622449	9.3998724489796	9.4747395907593		
533	16033	1497120207	0.94314236111111	0.69637784090909	9.4012784090909	9.4746184351879		
534	16033	1497120208	0.90250157828283	0.65861742424242	9.3977272727273	9.4645391458275		
535	16033	1497120209	0.887421875	0.6876953125	9.485859375	9.5529960462971		
536	16033	1497120210	0.852890625	0.6837890625	9.551953125	9.615356970816		
537	16033	1497120211	0.70955650252525	0.60610006313131	9.5490845959596	9.5956011668663		
538	16033	1497120212	0.6748828125	0.69453125	9.5949609375	9.6446998581264		
539	16033	1497120213	0.69330136138614	0.68533415841584	9.5810643564356	9.6315780506131		
540	16033	1497120214	0.70415088383838	0.67518939393939	9.4014756944444	9.4526970890281		
541	16033	1497120215	0.77663352272727	0.62105429292929	9.3609138257576	9.4145733312782		
542	16033	1497120216	0.79558634020619	0.75197326030928	9.3834971005155	9.4496753425949		
543	16033	1497120217	0.75982481060606	1.1119002525253	9.3464330808081	9.4464748957177		
544	16033	1497120218	0.6528515625	1.1070703125	9.329375	9.4307642590964		
545	16033	1497120219	0.59643308080808	1.1300505050505	9.3645044191919	9.4624972852137		
546	16033	1497120220	0.5895703125	1.1951171875	9.350703125	9.4555610093745		
547	16033	1497120221	0.60989317602041	1.126315369898	9.3757174744898	9.4704583761272		
548	16033	1497120222	0.62728851010101	1.2102272727273	9.3745659722222	9.4818729332845		
549	16033	1497120223	0.6609375	1.1540234375	9.3612109375	9.4596720560022		
550	16033	1497120224	0.7512109375	1.205625	9.3975	9.5123413087124		
551	16033	1497120225	0.65222772277228	1.1110767326733	9.3103341584158	9.4069890080212		
552	16033	1497120226	0.33672664141414	1.1195943813131	9.34375	9.4202640662158		
553	16033	1497120227	0.30747767857143	1.0560427295918	9.375	9.4445556944892		
554	16033	1497120228	0.22628348214286	0.98828125	9.366868622449	9.4282967516909		
555	16033	1497120229	0.085976957070707	0.97470801767677	9.3459990530303	9.4016800695426		
556	16033	1497120230	0.090561224489796	0.87978316326531	9.3804607780612	9.4244797143046		
557	16033	1497120231	0.607421875	0.879375	9.37	9.4329961282089		
558	16033	1497120232	0.55683992346939	0.87161192602041	9.3658322704082	9.4256032689107		
559	16033	1497120233	0.53953598484848	0.79604640151515	9.3650568181818	9.4201252700989		
560	16033	1497120234	0.44832920792079	0.89325495049505	9.3833152846535	9.4422548719754		
561	16033	1497120235	0.4471484375	0.7500390625	9.36015625	9.4065789778234		
562	16033	1497120236	0.31154336734694	0.70515784438776	9.3595742984694	9.3945061365266		
563	16033	1497120237	0.31130420918367	0.71595982142857	9.3046875	9.3409399445529		
564	16033	1497120238	0.2073974609375	0.9029541015625	9.1610107421875	9.2147457627797		
565	16033	1497120239	0.079900568181818	1.0014204545455	9.1722695707071	9.2278303595659		
566	16033	1497120240	0.14137468434343	1.0028409090909	9.1860006313131	9.2424474346532		
567	16033	1497120241	0.111015625	1.0069140625	9.3170703125	9.3727512968721		
568	16033	1497120242	0.063802083333333	0.96081912878788	9.3253235479798	9.375215124463		
569	16033	1497120243	0.048532196969697	0.9955413510101	9.3277304292929	9.3812205705727		
570	16033	1497120244	0.081257735148515	0.96573329207921	9.3369043935644	9.3874332516233		
571	16033	1497120245	0.084201388888889	0.99124053030303	9.3377525252525	9.3910277672937		
572	16033	1497120246	0.22555693069307	1.0013536509901	9.3267713490099	9.3839711843454		
573	16033	1497120247	0.36770567602041	0.96153539540816	9.3547114158163	9.4115806255625		
574	16033	1497120248	0.3892713490099	0.92148824257426	9.3557008044554	9.4093725028439		
575	16033	1497120249	0.66872608418367	0.93718112244898	9.4084024234694	9.479661162352		
576	16033	1497120250	0.65319461633663	0.91823948019802	9.3763923267327	9.4444492751049		
577	16033	1497120251	0.72082270408163	0.92430644132653	9.3836096938776	9.4574704573327		
578	16033	1497120252	0.66658528645833	0.96333821614583	9.37451171875	9.4503151565545		
579	16033	1497120253	0.67598054846939	0.96827168367347	9.3620854591837	9.4481627900076		
580	16033	1497120254	0.2597265625	1.053203125	9.33359375	9.4008229125289	s	s
581	16033	1497120255	0.24178890306122	1.073580994898	9.3415975765306	9.4101786313144		
582	16033	1497120256	0.19913903061224	1.0316884566327	9.3409996811224	9.4017614297992		
583	16033	1497120257	0.22380050505051	1.0044586489899	9.353180239899	9.4110176598737		
584	16033	1497120258	0.237578125	0.9750390625	9.368046875	9.4223211426875		
585	16033	1497120259	0.3065234375	1.0357421875	9.3412890625	9.407294165716		
586	16033	1497120260	0.22074298469388	1.0247130102041	9.3454639668367	9.4045626142212		
587	16033	1497120261	0.20904605263158	1.0138569078947	9.3530016447368	9.4102582156296		
588	16033	1497120262	0.2089453125	0.9950390625	9.3600390625	9.4152575456933		
589	16033	1497120263	0.20024463383838	0.92601799242424	9.3673847853535	9.4153351857821		
590	16033	1497120264	0.20304528061224	0.91505899234694	9.3708545918367	9.4178336246833		
591	16033	1497120265	0.2181640625	0.97765625	9.356328125	9.4100159107913		
592	16033	1497120266	0.21982621173469	0.99131058673469	9.3510443239796	9.4062403261338		
593	16033	1497120267	0.20610303217822	0.95111386138614	9.3632038985149	9.413933536282		
594	16033	1497120268	0.21	0.969296875	9.356640625	9.4093792468489		
595	16033	1497120269	0.24015299479167	0.98160807291667	9.358642578125	9.4134032271407		
596	16033	1497120270	0.23232119845361	0.9294056056701	9.3677512886598	9.4168450975466		
597	16033	1497120271	0.2448046875	0.98515625	9.34734375	9.4025858809374		
598	16033	1497120272	0.24475220959596	0.95908301767677	9.360045770202	9.4124844592635		
599	16033	1497120273	0.23907039141414	0.92096748737374	9.3690814393939	9.4175226370876		
600	16033	1497120274	0.2509262242268	0.97845521907216	9.3484213917526	9.4031004734181		
601	16033	1497120275	0.251875	0.9753125	9.3505859375	9.404988745707		
602	16033	1497120276	0.26151945153061	0.96763392857143	9.3605707908163	9.4142817342394		
603	16033	1497120277	0.26275510204082	0.93148118622449	9.370455994898	9.420508576244		
604	16033	1497120278	0.26223169191919	0.97261679292929	9.3592171717172	9.4134842809214		
605	16033	1497120279	0.2773046875	0.9734765625	9.354921875	9.4097106992649		
606	16033	1497120280	0.2721484375	0.9284765625	9.364765625	9.4149021127121		
607	16033	1497120281	0.1909765625	0.989609375	9.365859375	9.4216789623594		
608	16033	1497120282	0.16800860969388	1.0982142857143	9.3364158163265	9.4024723182122		
609	16033	1497120283	0.18990688131313	1.0993134469697	9.3349510732323	9.4015547784155		
610	16033	1497120284	0.17921401515152	1.0741003787879	9.3484848484848	9.4119346527944		
611	16033	1497120285	0.18129832474227	1.0912532216495	9.3383134664948	9.4037191946037		
612	16033	1497120286	0.18080357142857	1.0699139030612	9.3405213647959	9.4034726930542		
613	16033	1497120287	0.18028539540816	1.047512755102	9.34765625	9.4080668311687		
614	16033	1497120288	0.17996369949495	1.0699179292929	9.3414220328283	9.4043199349632		
615	16033	1497120289	0.152890625	1.098359375	9.3391796875	9.4050870131293		
616	16033	1497120290	0.19507575757576	1.1097301136364	9.3351089015152	9.4030825896108		
617	16033	1497120291	0.1971875	1.105078125	9.3312109375	9.3986363427797		
618	16033	1497120292	0.2201953125	1.1001953125	9.337578125	9.4050807908745		
619	16033	1497120293	0.23381121134021	1.0576272551546	9.3429445876289	9.4056773459102		
620	16033	1497120294	0.2344140625	1.053125	9.3421484375	9.4043947234985		
621	16033	1497120295	0.22979113520408	1.0519770408163	9.3527981505102	9.4147468940384		
622	16033	1497120296	0.238203125	1.091796875	9.335234375	9.4020877626758		
623	16033	1497120297	0.22537878787879	1.1058238636364	9.342132260101	9.4101866558649		
624	16033	1497120298	0.22708601804124	1.0978978737113	9.3326353092784	9.3998803728355		
625	16033	1497120299	0.22648358585859	1.0979324494949	9.3336095328283	9.4008924486098		
626	16033	1497120300	0.2168359375	1.0612109375	9.3448046875	9.4076616876483		
627	16033	1497120301	0.21025988520408	1.0353156887755	9.352200255102	9.4117965846789		
628	16033	1497120302	0.29300820707071	1.0485321969697	9.3431581439394	9.4073928514888		
629	16033	1497120303	0.79169245049505	1.0564665841584	9.3276608910891	9.42434647284	s	d
630	16033	1497120304	0.98618717783505	1.051143685567	9.3255879510309	9.4425855190123		
631	16033	1497120305	0.98236386138614	0.93336169554455	9.3558941831683	9.4556948401177		
632	16033	1497120306	0.66039299242424	0.92278251262626	9.3655303030303	9.4368070588192		
633	16033	1497120307	0.63140625	0.9015234375	9.381953125	9.446938542504		
634	16033	1497120308	0.55322758838384	0.89681976010101	9.3630839646465	9.4237142986649		
635	16033	1497120309	0.58459595959596	0.95900410353535	9.3557844065657	9.4255829218717		
636	16033	1497120310	0.716875	0.9579296875	9.3493359375	9.4280481776541		
637	16033	1497120311	0.776640625	1.009609375	9.3399609375	9.4273965846379		
638	16033	1497120312	0.7405859375	1.020234375	9.342734375	9.4287391821153		
639	16033	1497120313	0.57796556122449	0.99083227040816	9.3577008928571	9.4295243684995		
640	16033	1497120314	0.4612109375	0.9337109375	9.3673046875	9.4277263868526		
641	16033	1497120315	0.22088068181818	0.97119633838384	9.3278488005051	9.3829599865219		
642	16033	1497120316	0.2191796875	0.977734375	9.375625	9.4312796676421		
643	16033	1497120317	0.21890625	0.880546875	9.32703125	9.3732100096083		
644	16033	1497120318	0.2284765625	0.6738671875	9.3918359375	9.4211719633714		
645	16033	1497120319	0.17605744949495	0.35673137626263	9.4435369318182	9.454247388068		
646	16033	1497120320	0.37953125	0.3163671875	9.4486328125	9.4647889492475		
647	16033	1497120321	0.48149463383838	0.28649779040404	9.4418008207071	9.4615137778558		
648	16033	1497120322	0.4729296875	0.2884375	9.43984375	9.4586230660574		
649	16033	1497120323	0.37042297979798	0.43718434343434	9.4343828914141	9.4557870900212		
650	16033	1497120324	0.31345663265306	0.77056760204082	9.3634008290816	9.4023840935402		
651	16033	1497120325	0.36509627525253	0.94428661616162	9.3515230429293	9.4084581513443		
652	16033	1497120326	0.30583175505051	0.98169191919192	9.3020438762626	9.3613571367503		
653	16033	1497120327	0.214375	0.98890625	9.344453125	9.4015840211069		
654	16033	1497120328	0.27690972222222	0.96302872474747	9.3321101641414	9.3892042226174		
655	16033	1497120329	0.31095297029703	0.99439201732673	9.3262685643564	9.386323240025		
656	16033	1497120330	0.36580650252525	0.98220486111111	9.3136047979798	9.3737515129119		
657	16033	1497120331	0.42767518939394	1.0105744949495	9.3021622474747	9.3694094670439		
658	16033	1497120332	0.71026672979798	0.95620265151515	9.3410669191919	9.4192230670715		
659	16033	1497120333	0.9216015625	0.8818359375	9.3351171875	9.4227162516426		
660	16033	1497120334	1.0677872474747	0.87492108585859	9.327454229798	9.430061544984		
661	16033	1497120335	1.15890625	0.9222265625	9.31140625	9.4303673502265		
662	16033	1497120336	1.128364789604	0.95826887376238	9.3124613242574	9.4308560719477		
663	16033	1497120337	1.0840640943878	0.9621731505102	9.3309550382653	9.4435211242492		
664	16033	1497120338	1.080390625	0.96171875	9.3012890625	9.4135318680737		
665	16033	1497120339	1.056015625	0.9869921875	9.3405078125	9.4526339107542		
666	16033	1497120340	0.99565529336735	0.98983577806122	9.3541135204082	9.4652522277267		
667	16033	1497120341	0.9274609375	0.9328125	9.3742578125	9.4698201541669		
668	16033	1497120342	0.9102734375	0.9447265625	9.34984375	9.4443083892493		
669	16033	1497120343	0.8665625	0.9805859375	9.331328125	9.423627251324		
670	16033	1497120344	0.83661511479592	0.94686702806122	9.3410794005102	9.4286990754181		
671	16033	1497120345	0.82271938131313	0.96358112373737	9.342408459596	9.4293663515963		
672	16033	1497120346	0.8083203125	0.90765625	9.327578125	9.4090839176898		
673	16033	1497120347	0.75785235969388	0.95133131377551	9.3569834183673	9.4366595369069		
674	16033	1497120348	0.68655303030303	0.96618529040404	9.328795770202	9.405224181556		
675	16033	1497120349	0.58637152777778	0.96906565656566	9.3511679292929	9.4240508205667		
676	16033	1497120350	0.48725536616162	0.91623263888889	9.3986347853535	9.4604544213321		
677	16033	1497120351	0.47171875	0.979453125	9.3352734375	9.4029614480805		
678	16033	1497120352	0.4045703125	0.9427734375	9.3935546875	9.4581764772377		
679	16033	1497120353	0.22484375	0.9180859375	9.2721484375	9.3286320199794		
680	16033	1497120354	0.17530776515152	0.90553977272727	9.39453125	9.4461665313745		
681	16033	1497120355	0.16212910353535	0.9464172979798	9.3910590277778	9.4464737666393		
682	16033	1497120356	0.22269570707071	0.90423768939394	9.3430003156566	9.3928600643024		
683	16033	1497120357	0.2105078125	0.8875	9.368203125	9.4166656545543		
684	16033	1497120358	0.1920703125	0.9543359375	9.3576171875	9.4128147223737		
685	16033	1497120359	0.18328434405941	0.94902537128713	9.3564743193069	9.4085185925513		
686	16033	1497120360	0.1784793814433	0.94144652061856	9.3648115335052	9.4155629278675		
687	16033	1497120361	0.18209438131313	0.9380523989899	9.3683317550505	9.4184097145491		
688	16033	1497120362	0.193828125	0.958046875	9.353359375	9.4074131472998		
689	16033	1497120363	0.19844523514851	0.96975556930693	9.3752320544554	9.4307944570132		
690	16033	1497120364	0.0894921875	0.947421875	9.3662890625	9.4158157470193		
691	16033	1497120365	0.074140625	0.917421875	9.3944140625	9.4410358999788		
692	16033	1497120366	0.12786989795918	0.94758450255102	9.382493622449	9.432298489491		
693	16033	1497120367	0.1137109375	0.967890625	9.362109375	9.4133197898099		
694	16033	1497120368	0.15307858910891	1.0100556930693	9.3610767326733	9.4176306729113		
695	16033	1497120369	0.19921875	0.98959661989796	9.3665098852041	9.4215474370405		
696	16033	1497120370	0.3737109375	0.964453125	9.358671875	9.4164652429226		
697	16033	1497120371	0.4809765625	0.949375	9.340546875	9.4019167547008		
698	16033	1497120372	0.28484375	0.7464453125	9.40890625	9.4465039268715		
699	16033	1497120373	0.25299873737374	0.49171401515152	9.4346196338384	9.4526531340938		
700	16033	1497120374	0.2533203125	0.4757421875	9.425703125	9.4433053322392		
701	16033	1497120375	0.15380366161616	0.39666193181818	9.4258996212121	9.4377233133487		
702	16033	1497120376	0.1335546875	0.3601953125	9.42453125	9.4356247176027		
703	16033	1497120377	0.093710542929293	0.55843592171717	9.4090514520202	9.4274634634894		
704	16033	1497120378	0.0919921875	0.6619140625	9.35875	9.3835775451567		
705	16033	1497120379	0.11268335459184	0.90585140306122	9.3153300382653	9.3609624243618		
706	16033	1497120380	0.1521484375	1.125546875	9.319375	9.3891647273155		
707	16033	1497120381	0.27104591836735	1.1462452168367	9.2833227040816	9.3580927971685		
708	16033	1497120382	0.25063775510204	1.1467235331633	9.3106265943878	9.385190666471		
709	16033	1497120383	0.14228805693069	1.1338954207921	9.3037592821782	9.3742917165891		
710	16033	1497120384	0.07067493556701	1.127818943299	9.3030364046392	9.3725701055582		
711	16033	1497120385	0.13042091836735	1.0550860969388	9.3094706632653	9.370934559148		
712	16033	1497120386	0.0476953125	1.0512109375	9.324140625	9.383616255099		
713	16033	1497120387	0.0351953125	1.079140625	9.319453125	9.3821782738409		
714	16033	1497120388	0.0846875	1.1082421875	9.2973046875	9.3639767900165		
715	16033	1497120389	0.15262276785714	1.1519850127551	9.3176817602041	9.3903986674872		
716	16033	1497120390	0.1134359529703	1.1255027846535	9.2978805693069	9.3669650496007		
717	16033	1497120391	0.045612373737374	1.1480034722222	9.2899305555556	9.3609982834718		
718	16033	1497120392	0.042219065656566	1.1607086489899	9.3024384469697	9.3749329533692		
719	16033	1497120393	0.15109375	1.123046875	9.3084765625	9.3775533013801		
720	16033	1497120394	0.2252734375	1.135859375	9.3069921875	9.3792854943169		
721	16033	1497120395	0.4284375	1.1439453125	9.3084375	9.3886637063816		
722	16033	1497120396	0.42629942602041	1.1637834821429	9.309909119898	9.3925443106451		
723	16033	1497120397	0.55293367346939	1.1509088010204	9.3095503826531	9.3968504925971		
724	16033	1497120398	0.57627051767677	1.1217250631313	9.3210621843434	9.4061815258383		
725	16033	1497120399	0.58972417091837	1.1522640306122	9.3197146045918	9.4095255339313		
726	16033	1497120400	0.32796875	1.1744921875	9.30546875	9.3858545755663		
727	16033	1497120401	0.65857796717172	1.1515151515152	9.3063841540404	9.4125469134836		
728	16033	1497120402	0.19716698232323	1.1136363636364	9.3071732954545	9.3779990984307	s	s
729	16033	1497120403	0.290546875	1.0562109375	9.318125	9.3890186147078		
730	16033	1497120404	0.16883680555556	0.94219539141414	9.3442629419192	9.3955405342953		
731	16033	1497120405	0.15995896464646	0.97088068181818	9.3373974116162	9.3910081305675		
732	16033	1497120406	0.18921396683673	1.0317283163265	9.3208705357143	9.380293644432		
733	16033	1497120407	0.21197385204082	1.0169802295918	9.3244180484694	9.3824190898846		
734	16033	1497120408	0.22557607323232	1.0383522727273	9.3239425505051	9.384443770417		
735	16033	1497120409	0.23404947916667	1.0367024739583	9.3167317708333	9.3772932179159		
736	16033	1497120410	0.21279198232323	0.99321338383838	9.3257181186869	9.3810001100868		
737	16033	1497120411	0.22537878787879	1.0239109848485	9.3203519570707	9.3792376591874		
738	16033	1497120412	0.2291015625	1.020546875	9.319453125	9.37810580805		
739	16033	1497120413	0.21796875	0.982890625	9.3262109375	9.3805541400108		
740	16033	1497120414	0.21340880102041	0.98158482142857	9.3275669642857	9.3817983805304		
741	16033	1497120415	0.20999053030303	1.0284880050505	9.3211410984848	9.3804123598083		
742	16033	1497120416	0.19756765463918	0.99963756443299	9.3275209407216	9.3834153632594		
743	16033	1497120417	0.2141262755102	1.0558434311224	9.3138552295918	9.3765510353184		
744	16033	1497120418	0.21641430412371	1.0336662371134	9.3200708762887	9.3801982516843		
745	16033	1497120419	0.26015625	1.0395703125	9.3226171875	9.3852050734095		
746	16033	1497120420	0.26602770618557	1.0473985180412	9.3145135309278	9.3772169216062		
747	16033	1497120421	0.25749033505155	1.0333440721649	9.3161243556701	9.376912344337		
748	16033	1497120422	0.2442626953125	1.0078531901042	9.328857421875	9.3864251635508		
749	16033	1497120423	0.25203125	1.0071484375	9.3248828125	9.3825654473171		
750	16033	1497120424	0.25068460051546	1.0220280283505	9.3176949097938	9.3770062564362		
751	16033	1497120425	0.25931803385417	1.0442708333333	9.3116455078125	9.3736851448561		
752	16033	1497120426	0.26359215561224	1.0493861607143	9.3144929846939	9.3772203589379		
753	16033	1497120427	0.23828125	1.0419823232323	9.3146701388889	9.3760597710273		
754	16033	1497120428	0.23963647959184	1.0284598214286	9.3202726403061	9.3800076346763		
755	16033	1497120429	0.2281640625	1.010625	9.3236328125	9.3811154870527		
756	16033	1497120430	0.23133223684211	1.0166940789474	9.3204769736842	9.3787265270999		
757	16033	1497120431	0.23577008928571	1.0256297831633	9.320631377551	9.3799558588864		
758	16033	1497120432	0.23199903350515	1.0345924613402	9.3177754510309	9.378010463001		
759	16033	1497120433	0.2335546875	1.032109375	9.3244140625	9.3843517349132		
760	16033	1497120434	0.51014046717172	1.0363005050505	9.3093828914141	9.3890424571939		
761	16033	1497120435	1.0951810024752	1.0094755569307	9.3016321163366	9.4211512953429		
762	16033	1497120436	1.1429036458333	1.0091552734375	9.2884521484375	9.4154039832462	s	d
763	16033	1497120437	0.9228125	0.9883203125	9.3065234375	9.4117398993885		
764	16033	1497120438	0.5703125	0.9969921875	9.3103515625	9.3843038297107		
765	16033	1497120439	0.43506855867347	0.98712531887755	9.3239795918367	9.3885801091169		
766	16033	1497120440	0.4986328125	1.0080078125	9.3178125	9.3863316424964		
767	16033	1497120441	0.65076546717172	0.97810132575758	9.3212200126263	9.3958284274983		
768	16033	1497120442	0.93933354591837	1.0029496173469	9.3176020408163	9.4187433392633		
769	16033	1497120443	1.0074609375	1.0130859375	9.2964453125	9.4057768567488		
770	16033	1497120444	1.0182686237374	1.0300662878788	9.2952178030303	9.4075399796251		
771	16033	1497120445	0.9983428030303	1.0000394570707	9.3057133838384	9.4126531731562		
772	16033	1497120446	0.91950757575758	1.0093907828283	9.310211489899	9.4102760863632		
773	16033	1497120447	0.92494419642857	1.0202088647959	9.3007015306122	9.4023646113062		
774	16033	1497120448	0.92657039141414	1.0085227272727	9.3210227272727	9.4214857812651		
775	16033	1497120449	0.90116003787879	1.014007260101	9.2983349116162	9.3972025254233		
776	16033	1497120450	0.83183396464646	1.0018150252525	9.3119870580808	9.4030584353971		
777	16033	1497120451	0.82765151515152	1.0128235479798	9.306976010101	9.3990487459172		
778	16033	1497120452	0.77450284090909	0.9888336489899	9.3166035353535	9.4018327726611		
779	16033	1497120453	0.66528566919192	0.97814078282828	9.3180634469697	9.393923781062		
780	16033	1497120454	0.63455290841584	0.98619275990099	9.324760210396	9.4025837254158		
781	16033	1497120455	0.60325386597938	1.0079735824742	9.3179768041237	9.3935801696427		
782	16033	1497120456	0.40218266752577	0.98940882731959	9.3402464561856	9.4042650567775		
783	16033	1497120457	0.10617897727273	0.94807449494949	9.3358585858586	9.3857836303118		
784	16033	1497120458	0.060527146464646	0.86679292929293	9.3823390151515	9.4235603706992		
785	16033	1497120459	0.057607323232323	0.79245580808081	9.3676215277778	9.40195523227		
786	16033	1497120460	0.051698022959184	0.64756058673469	9.3791055484694	9.4020003304855		
787	16033	1497120461	0.068203125	0.60890625	9.393046875	9.4141961893093		
788	16033	1497120462	0.068033854166667	0.77152506510417	9.3871256510417	9.4194973663017		
789	16033	1497120463	0.065560567010309	0.84725354381443	9.3557103737113	9.3948394353607		
790	16033	1497120464	0.083266900510204	0.8687818877551	9.3426339285714	9.3838617628276		
791	16033	1497120465	0.070707070707071	0.94625946969697	9.3450520833333	9.3936708000576		
792	16033	1497120466	0.28659119897959	0.95874521683673	9.3547114158163	9.4089594275507		
793	16033	1497120467	0.32552083333333	0.9788115530303	9.3151041666667	9.3728139643041		
794	16033	1497120468	0.18296875	0.85125	9.382421875	9.4242648011131		
795	16033	1497120469	0.16382334183673	0.68953284438776	9.3868383290816	9.4143464567863		
796	16033	1497120470	0.1926419005102	0.66485969387755	9.4027024872449	9.4291149537507		
797	16033	1497120471	0.17705676020408	0.74031409438776	9.3721699617347	9.4044924072881		
798	16033	1497120472	0.15090880102041	0.74517697704082	9.3883131377551	9.4205797399985		
799	16033	1497120473	0.20525216584158	0.75626547029703	9.3840501237624	9.4176515800077		
800	16033	1497120474	0.23026945153061	0.798828125	9.3623644770408	9.4006696008985		
801	16033	1497120475	0.1645703125	0.8620703125	9.36734375	9.409331162996		
802	16033	1497120476	0.16591698232323	0.83601641414141	9.3638336489899	9.4036629930719		
803	16033	1497120477	0.094059405940594	0.84943533415842	9.3704749381188	9.411041361455		
804	16033	1497120478	0.32220643939394	0.59915561868687	9.3776830808081	9.4103108217697		
805	16033	1497120479	0.94408933080808	0.36170296717172	9.434264520202	9.4982276939053		
806	16033	1497120480	0.63360164141414	0.49431818181818	9.4106691919192	9.4589039566447		
807	16033	1497120481	0.3819921875	0.8978125	9.3721875	9.4311959155521		
808	16033	1497120482	0.1820703125	0.9889453125	9.3562890625	9.410880478835		
809	16033	1497120483	0.1852509469697	1.043915719697	9.3455255681818	9.4058066309949		
810	16033	1497120484	0.24617346938776	1.0835060586735	9.3412388392857	9.4075531139004		
811	16033	1497120485	0.26399075255102	1.1118861607143	9.3276466836735	9.3984063527075		
812	16033	1497120486	0.3667578125	1.151875	9.3451953125	9.4235691381295		
813	16033	1497120487	0.33195233585859	1.1882102272727	9.3178267045455	9.3993113549861		
814	16033	1497120488	0.35302241161616	1.2503945707071	9.3158538510101	9.4066185888438		
815	16033	1497120489	0.42995823019802	1.2517404084158	9.3246055074257	9.4185816829754		
816	16033	1497120490	0.75455729166667	1.2086995442708	9.330322265625	9.4396253624774		
817	16033	1497120491	0.80780460858586	1.2648358585859	9.337279040404	9.459432536191		
818	16033	1497120492	0.7280708539604	1.2862778465347	9.274713799505	9.4088855256413		
819	16033	1497120493	0.24484375	1.391796875	9.2524609375	9.3627547723475	s	s
820	16033	1497120494	0.3203125	1.2408065025253	9.2928503787879	9.3867601927275		
821	16033	1497120495	0.21639827806122	1.3189572704082	9.2707669005102	9.3685091575385		
822	16033	1497120496	0.22743941326531	1.3319116709184	9.2631935586735	9.3620596558507		
823	16033	1497120497	0.24665178571429	1.3686623086735	9.2588089923469	9.3633042466287		
824	16033	1497120498	0.26388459158416	1.390083539604	9.2542543316832	9.3619609935318		
825	16033	1497120499	0.25587910353535	1.3765782828283	9.2561553030303	9.3615961914939		
826	16033	1497120500	0.2505523989899	1.3635179924242	9.2543402777778	9.3577066436687		
827	16033	1497120501	0.26905776515152	1.3879024621212	9.248658459596	9.3562136088011		
828	16033	1497120502	0.27531090561224	1.384446747449	9.2423070790816	9.349622362275		
829	16033	1497120503	0.25944674744898	1.3569435586735	9.2539461096939	9.3565908517109		
830	16033	1497120504	0.2890625	1.3914930555556	9.2443970959596	9.3531034666922		
831	16033	1497120505	0.28260522959184	1.3852838010204	9.2443399234694	9.3519609232931		
832	16033	1497120506	0.27394028465347	1.3646349009901	9.2423808787129	9.3468071933667		
833	16033	1497120507	0.27466066919192	1.3720012626263	9.2468434343434	9.3522909484124		
834	16033	1497120508	0.26462850765306	1.3428332270408	9.2527503188776	9.3535612576963		
835	16033	1497120509	0.25260416666667	1.3129069010417	9.2591959635417	9.3553380797446		
836	16033	1497120510	0.26183956185567	1.3240979381443	9.2568862757732	9.3548552195217		
837	16033	1497120511	0.26361146907216	1.3380315721649	9.2478253865979	9.3481420501328		
838	16033	1497120512	0.26698022959184	1.3622050382653	9.2458545918367	9.3496422848118		
839	16033	1497120513	0.27432345360825	1.3744362113402	9.2414223582474	9.3471837660461		
840	16033	1497120514	0.2680078125	1.3738671875	9.246484375	9.3519322256743		
841	16033	1497120515	0.26566569010417	1.3492431640625	9.2715250651042	9.3731343482538		
842	16033	1497120516	0.24283182989691	1.3166881443299	9.3136275773196	9.4094836003429		
843	16033	1497120517	0.25765306122449	1.3343431122449	9.281887755102	9.3809745814592		
844	16033	1497120518	0.26957152061856	1.3778592139175	9.274887242268	9.3806665321299		
845	16033	1497120519	0.2689788510101	1.3793402777778	9.271819760101	9.3778029806808		
846	16033	1497120520	0.25245650773196	1.3509584407216	9.2764175257732	9.3777342862333		
847	16033	1497120521	0.27193813131313	1.3813920454545	9.2691366792929	9.3755478795862		
848	16033	1497120522	0.2750318877551	1.3854432397959	9.2652264030612	9.3724277002449		
849	16033	1497120523	0.2473828125	1.3444140625	9.27390625	9.3742248626277		
850	16033	1497120524	0.56289859693878	1.3770328443878	9.2571348852041	9.389253660034		
851	16033	1497120525	1.1386126893939	1.3894807449495	9.2150410353535	9.3899545057456		
852	16033	1497120526	1.0220822704082	1.3631616709184	9.2383609693878	9.3948530529293		
853	16033	1497120527	0.59640625	1.34328125	9.2464453125	9.3659709954388	s	d
854	16033	1497120528	0.41840277777778	1.2898516414141	9.2878393308081	9.3930658874718		
855	16033	1497120529	0.93718434343434	1.3203125	9.2423058712121	9.3850064347755		
856	16033	1497120530	1.1624842171717	1.3641098484848	9.1901830808081	9.3659337164441		
857	16033	1497120531	1.0894956683168	0.65748762376238	9.4002165841584	9.4946186655431		
858	16033	1497120532	0.96930803571429	0.93845663265306	9.3054448341837	9.4103979891761		
859	16033	1497120533	0.56435448232323	1.26953125	9.3342013888889	9.4657495828674		
860	16033	1497120534	0.46906565656566	1.4641335227273	9.2413194444444	9.3783071473032		
861	16033	1497120535	0.68552673969072	1.549331507732	9.2086823453608	9.3717470748881		
862	16033	1497120536	0.5256470959596	1.4573074494949	9.1957070707071	9.3280880316526		
863	16033	1497120537	0.39204545454545	1.4785353535354	9.2404119318182	9.3682711899183		
864	16033	1497120538	0.4591796875	1.53578125	9.219453125	9.3599439201269		
865	16033	1497120539	0.51821627475248	1.544515779703	9.2160813737624	9.3602402422927		
866	16033	1497120540	0.1982421875	1.557109375	9.2275	9.362549957368		
867	16033	1497120541	0.24669164540816	1.2611208545918	9.2619180484694	9.3528833159922		
868	16033	1497120542	0.2756865530303	0.96523832070707	9.3163667929293	9.3716968052523		
869	16033	1497120543	0.2810546875	1.032421875	9.3093359375	9.371072512333		
870	16033	1497120544	0.26523042929293	1.0694049873737	9.2932449494949	9.3592616621959		
871	16033	1497120545	0.3986328125	1.1308203125	9.2997265625	9.3799499848695		
872	16033	1497120546	0.87464488636364	1.3222064393939	9.2044270833333	9.3439137428657		
873	16033	1497120547	1.111171875	1.3353125	9.2138671875	9.3772880116009		
874	16033	1497120548	1.118125	1.266953125	9.2296484375	9.383960853528		
875	16033	1497120549	1.057265625	1.244765625	9.244296875	9.3882808709566		
876	16033	1497120550	0.87985321969697	1.1718355429293	9.2464094065657	9.365343428596		
877	16033	1497120551	0.434296875	1.2223828125	9.27171875	9.3638043540202		
878	16033	1497120552	0.44045928030303	1.282867739899	9.2657039141414	9.3656010924678		
879	16033	1497120553	0.46160827020202	1.2737531565657	9.2659801136364	9.3657953461032		
880	16033	1497120554	0.39163056930693	1.2528233292079	9.32421875	9.4174433933798		
881	16033	1497120555	0.37836119186047	1.2829305959302	9.2574945494186	9.3622342215029		
882	16033	1497120556	0.33416559278351	1.3384342783505	9.1879832474227	9.2983591723256		
883	16033	1497120557	0.0527734375	1.2653515625	9.3727734375	9.4592826604904		
884	16033	1497120558	0.048046875	1.2716796875	9.2413671875	9.3300771779202		
885	16033	1497120559	0.2360716540404	1.3179450757576	9.1906960227273	9.2922633661082		
886	16033	1497120560	0.82027304292929	1.4099195075758	9.1391650883838	9.2938386496995		
887	16033	1497120561	0.54730902777778	1.5631313131313	9.1424005681818	9.2938151147745		
888	16033	1497120562	0.1829296875	1.5895703125	9.1580859375	9.3011525964863		
889	16033	1497120563	0.12582859848485	1.8794191919192	9.0427714646465	9.2434520871383		
890	16033	1497120564	0.15234375	1.7887037627551	9.0896843112245	9.2687954195478		
891	16033	1497120565	0.13825757575758	1.3661221590909	9.2135811237374	9.3185853708785		
892	16033	1497120566	0.058046875	1.267109375	9.222421875	9.3101558973076		
893	16033	1497120567	0.080795599489796	1.2094228316327	9.2383211096939	9.318049666065		
894	16033	1497120568	0.25374842171717	1.2241161616162	9.352509469697	9.438237279647		
895	16033	1497120569	1.0048046875	1.586953125	9.2009375	9.4433903649831		
896	16033	1497120570	2.8762356505102	2.1994579081633	8.9910714285714	10.185730171108		
897	16033	1497120571	3.365569760101	1.8657670454545	7.9899779040404	9.476388950476		
898	16033	1497120572	1.4427083333333	0.6032196969697	9.2612058080808	9.4831234565114		
899	16033	1497120573	1.0026953125	0.4085546875	9.3872265625	9.4726817840525		
900	16033	1497120574	1.1113679846939	0.66191007653061	9.6039540816327	9.7048855754136		
901	16033	1497120575	0.9673046875	2.6711328125	8.5930859375	9.1332376537089		
902	16033	1497120576	1.266295770202	3.9008443813131	8.1822916666667	9.2167647891407		
903	16033	1497120577	1.2635337752525	4.4981849747475	7.9797190656566	9.3405150740029		
904	16033	1497120578	1.93859375	4.0683984375	8.0895703125	9.3811789240747		
905	16033	1497120579	0.84921077806122	1.6980229591837	9.512037627551	9.812310321366		
906	16033	1497120580	3.0581640625	1.2053515625	9.0143359375	9.6354395698257		
907	16033	1497120581	3.4196827168367	1.036790497449	8.7578922193878	9.4872962565596		
908	16033	1497120582	3.3840501237624	1.9044709158416	8.7015006188119	9.5575580729527		
909	16033	1497120583	4.5574100378788	2.4898200757576	7.9538352272727	9.5139397773031		
910	16033	1497120584	4.8794140625	2.621953125	7.7158984375	9.5209045633558		
911	16033	1497120585	5.7263233418367	2.9453125	7.0218829719388	9.5491866840722		
912	16033	1497120586	6.003203125	2.7387109375	6.8957421875	9.5569349838225		
913	16033	1497120587	5.5193277994792	2.9825846354167	7.2181803385417	9.5689800128438		
914	16033	1497120588	5.3111842105263	3.1746299342105	7.2927220394737	9.5660816233258		
915	16033	1497120589	5.3037799873737	3.7758049242424	7.1294586489899	9.657292777505		
916	16033	1497120590	5.1864013671875	3.9020182291667	7.1911214192708	9.6875741376609		
917	16033	1497120591	4.9987890625	3.8178125	7.317734375	9.6537323055543		
918	16033	1497120592	3.8855078125	3.4521484375	8.0340625	9.6086221646588		
919	16033	1497120593	4.0733366935484	3.9125504032258	7.7474378360215	9.6075385227291		
920	16033	1497120594	3.5641108247423	5.0978978737113	7.3892557989691	9.6840565010735		
921	16033	1497120595	2.9575892857143	6.0495057397959	7.1490353954082	9.8449400486035		
922	16033	1497120596	2.5121922348485	5.8444996843434	7.3798137626263	9.869135958398		
923	16033	1497120597	6.2377232142857	3.6905293367347	5.7679368622449	10.236129689372		
924	16033	1497120598	8.0144736842105	1.4916118421053	4.1698190789474	9.408849115382		
925	16033	1497120599	7.1446957236842	2.2824424342105	5.6274259868421	9.4894734059494		
926	16033	1497120600	6.223984375	2.98640625	6.1940234375	9.746070985676		
927	16033	1497120601	2.1005760732323	3.459990530303	7.6301688762626	8.8929573032572		
928	16033	1497120602	2.7873711340206	1.9848179768041	9.1858891752577	10.013701696097		
929	16033	1497120603	1.1666796875	1.9284375	9.0745703125	9.4938270500658		
930	16033	1497120604	0.6265234375	2.33625	8.9449609375	9.3875973781684		
931	16033	1497120605	0.80626578282828	2.1261442550505	9.0396938131313	9.3837898037207	s	l
932	16033	1497120606	0.994453125	0.96765625	9.5781640625	9.725188243292		
933	16033	1497120607	1.05015625	1.7716796875	9.0490234375	9.4355583155721		
934	16033	1497120608	1.4180484693878	1.994459502551	9.1006855867347	9.6516055043579		
935	16033	1497120609	7.68359375	8.0906723484848	4.8826941287879	13.388803071289		
936	16033	1497120610	6.1448601973684	9.1032483552632	3.3959703947368	12.663172790573		
937	16033	1497120611	3.5936710858586	10.938565340909	4.4324494949495	13.198044739261		
938	16033	1497120612	3.9285196520619	10.563224871134	4.4416881443299	13.062882025954		
939	16033	1497120613	3.604019007732	11.544297680412	5.2544297680412	14.233883141641		
940	16033	1497120614	3.818828125	11.1691015625	6.1044921875	14.803672999734		
941	16033	1497120615	6.4390234375	15.9539453125	7.30671875	20.608379021476		
942	16033	1497120616	4.216875	14.8655078125	6.7054296875	18.382442754122		
943	16033	1497120617	3.669765625	13.50625	5.1925	16.397075596054		
944	16033	1497120618	3.7226167929293	9.7438841540404	2.6169113005051	11.685242538058		
945	16033	1497120619	2.3152262369792	10.903238932292	3.5327962239583	12.580367616302		
946	16033	1497120620	1.9724170918367	10.488560267857	2.6633848852041	11.643898849476		
947	16033	1497120621	1.949856505102	10.57545440051	2.4481026785714	11.624782247568		
948	16033	1497120622	2.0665625	10.7884375	2.6646484375	11.71540034873		
949	16033	1497120623	2.4248737373737	11.257930871212	3.6405066287879	12.6917202975		
950	16033	1497120624	3.8637994260204	13.056600765306	4.7657047193878	15.304543717826		
951	16033	1497120625	2.5514125631313	10.349510732323	4.5933948863636	12.471423925296		
952	16033	1497120626	3.4005500637755	10.717235331633	4.4093590561224	13.387249009588		
953	16033	1497120627	3.5582421875	10.948359375	4.6767578125	13.917669021147		
954	16033	1497120628	3.5135279605263	10.881702302632	3.9169819078947	13.334729368179		
955	16033	1497120629	3.1362847222222	10.625355113636	4.5916982323232	13.268064398807		
956	16033	1497120630	3.251953125	10.41354432398	4.2115353954082	12.9289030521		
957	16033	1497120631	3.0676294191919	11.007496843434	4.2797900883838	13.243928834483		
958	16033	1497120632	3.899296875	10.7957421875	4.723203125	13.449050793801		
959	16033	1497120633	3.9824625651042	3.3482666015625	7.7102457682292	10.14123322548		
960	16033	1497120634	1.4170446908602	2.5529653897849	8.9760584677419	9.6295052527622		
961	16033	1497120635	1.128046875	2.352109375	8.8679296875	9.3179343560032		
962	16033	1497120636	0.95902423469388	1.1012037627551	9.4148995535714	9.5949556000169		
