n	Session	accelerometer.seconds.Unix	accelerometer.accx.Average	accelerometer.accy.Average	accelerometer.accz.Average	accelerometer.accx.Average-All	events.type	events.description
1	16090	1497291010	0.94740316901408	2.620488556338	8.8946412852113	9.3401127677319		
2	16090	1497291011	0.54998405612245	2.9248246173469	8.7611208545918	9.2726240616572		
3	16090	1497291012	0.47664221938776	3.0374681122449	8.7549824617347	9.2871957446165		
4	16090	1497291013	2.8457828443878	3.8585379464286	7.8345424107143	9.6814301396176		
5	16090	1497291014	4.896875	3.41828125	7.7333984375	10.339349339345		
6	16090	1497291015	1.0237165178571	2.1045918367347	9.0084103954082	9.3757071112781		
7	16090	1497291016	0.5062181122449	2.4052933673469	8.9567920918367	9.324191859584		
8	16090	1497291017	0.96863162878788	2.8317945075758	8.7619554924242	9.3191745557382		
9	16090	1497291018	0.9414453125	2.74	8.79640625	9.271800415908		
10	16090	1497291019	0.60980043316832	2.1283261138614	9.0532951732673	9.3243293212993		
11	16090	1497291020	0.85514658505155	2.4047197164948	8.9269893685567	9.2864874418325		
12	16090	1497291021	0.47965655940594	1.9755569306931	8.9759823638614	9.2142088374729		
13	16090	1497291022	0.3293606505102	0.51542570153061	9.5222018494898	9.5523931718769		
14	16090	1497291023	0.23433632425743	0.57530167079208	9.3844755569307	9.4084097236961		
15	16090	1497291024	0.053172831632653	0.84574298469388	9.4382971938776	9.4774572511491		
16	16090	1497291025	0.058952487244898	0.81728316326531	9.4380181760204	9.4739974993272		
17	16090	1497291026	0.085658482142857	0.84905133928571	9.3935746173469	9.4326852785198		
18	16090	1497291027	0.13687818877551	0.80755739795918	9.3879145408163	9.4246196157287		
19	16090	1497291028	0.25631313131313	0.56790561868687	9.5088778409091	9.5358764418797		
20	16090	1497291029	0.75801179846939	0.60160235969388	9.3277662627551	9.4054570879983		
21	16090	1497291030	0.6807421875	0.8810546875	9.4150390625	9.5240490079763		
22	16090	1497291031	0.78697400990099	1.0031327351485	9.3446008663366	9.4545248660374		
23	16090	1497291032	1.0714567550505	0.59367108585859	9.6291429924242	9.7440395315246		
24	16090	1497291033	1.0548828125	0.543203125	9.5192578125	9.6124249288295		
25	16090	1497291034	0.5459375	0.31140625	9.448828125	9.4779339228444		
26	16090	1497291035	0.560859375	0.32234375	9.4513671875	9.4773650560488		
27	16090	1497291036	0.64548788265306	0.2727200255102	9.4787547831633	9.5055964284465		
28	16090	1497291037	0.69402384020619	0.48441527061856	9.4078608247423	9.4481532942009		
29	16090	1497291038	0.8243359375	0.4858203125	9.434296875	9.4834870867607		
30	16090	1497291039	0.89309630102041	0.44192442602041	9.3957669005102	9.4488813720601		
31	16090	1497291040	0.73812016752577	0.29550579896907	9.4612193943299	9.4955368230955		
32	16090	1497291041	0.58502998737374	0.30539772727273	9.432252209596	9.4557445324366		
33	16090	1497291042	0.58933080808081	0.34083017676768	9.426452020202	9.4514382494408		
34	16090	1497291043	0.41942866161616	0.13679766414141	9.460266729798	9.4760842666242		
35	16090	1497291044	0.18279655612245	0.20683195153061	9.4141422193878	9.4190985010562		
36	16090	1497291045	0.317890625	0.220859375	9.456171875	9.4681038250543		
37	16090	1497291046	0.4671556122449	0.39309630102041	9.3706552933673	9.3955186067605		
38	16090	1497291047	1.1630960051546	0.54272712628866	9.4689513530928	9.5738363328177		
39	16090	1497291048	1.2274609375	1.82078125	8.9988671875	9.2872535238276		
40	16090	1497291049	1.3048046875	1.8591796875	9.0967578125	9.3858020371813		
41	16090	1497291050	0.9483984375	2.026953125	9.01375	9.2899238103742		
42	16090	1497291051	0.99046875	1.7330859375	9.170703125	9.3889340787868		
43	16090	1497291052	0.6408203125	1.683515625	9.164921875	9.3524867038985		
44	16090	1497291053	0.3866796875	1.51015625	9.218203125	9.3507279084312		
45	16090	1497291054	0.4421875	1.533671875	9.23296875	9.3741833756831		
46	16090	1497291055	0.64340367268041	1.6614046391753	9.1567735180412	9.329601377614		
47	16090	1497291056	0.67103794642857	1.563137755102	9.2415896045918	9.4035849322254		
48	16090	1497291057	0.7523828125	1.6493359375	9.14328125	9.3275017008106		
49	16090	1497291058	0.651484375	1.4726171875	9.2506640625	9.3911263334371		
50	16090	1497291059	0.7890625	1.4567155934343	9.2069128787879	9.3560239213919		
51	16090	1497291060	1.1481613005051	1.1008522727273	9.4167455808081	9.6161259531141		
52	16090	1497291061	0.61450441919192	0.54648042929293	9.4001736111111	9.4459882994655		
53	16090	1497291062	0.53611288265306	0.740234375	9.3783482142857	9.425168446392		
54	16090	1497291063	0.71233258928571	0.80855389030612	9.3568239795918	9.4201757089728		
55	16090	1497291064	0.63216817010309	0.89147068298969	9.3419780927835	9.4073479236082		
56	16090	1497291065	0.7391796875	0.8918359375	9.3332421875	9.4055416229347		
57	16090	1497291066	0.83333333333333	0.9246764520202	9.3205492424242	9.4037363976065		
58	16090	1497291067	0.86611128826531	0.78575414540816	9.4265784438776	9.5029156962483		
59	16090	1497291068	0.99585700757576	0.49715909090909	9.446259469697	9.5310833780892		
60	16090	1497291069	0.70796875	0.7724609375	9.2846875	9.3686318457746		
61	16090	1497291070	0.103359375	0.8871484375	9.401328125	9.4440722466081		
62	16090	1497291071	0.10570790816327	0.92111766581633	9.372409119898	9.4185075972773		
63	16090	1497291072	0.09733737244898	0.92821269132653	9.3579400510204	9.4046142727157		
64	16090	1497291073	0.46839488636364	0.95734690656566	9.3504182449495	9.4268956971617		
65	16090	1497291074	0.2778125	0.99265625	9.443046875	9.5113056579524		
66	16090	1497291075	0.5584375	0.6308203125	9.350859375	9.4031747157602		
67	16090	1497291076	0.644765625	0.7459765625	9.233515625	9.3107227821918		
68	16090	1497291077	0.8052398989899	0.59639362373737	9.5980508207071	9.6715169240959		
69	16090	1497291078	0.5658203125	0.799140625	9.41921875	9.496166463665		
70	16090	1497291079	1.05484375	1.569921875	9.2321484375	9.4696049591453		
71	16090	1497291080	0.71973642676768	1.5207938762626	9.5144807449495	9.7106337910782		
72	16090	1497291081	1.5363165222772	1.6804610148515	8.9693301361386	9.3121620079862	s	e
73	16090	1497291082	2.0344786352041	2.0440051020408	8.7036431760204	9.7463339098121		
74	16090	1497291083	3.6165956439394	2.6788589015152	8.7470801767677	10.520246411159		
75	16090	1497291084	1.1284421410891	7.2585860148515	5.4715346534653	9.3804621585346		
76	16090	1497291085	0.66941849226804	3.7396504510309	8.4976240335052	9.5261069806322		
77	16090	1497291086	0.79219523514851	1.4319306930693	9.309135210396	9.5024401682479		
78	16090	1497291087	0.37959085051546	1.2000241623711	9.2801224226804	9.382866009934		
79	16090	1497291088	1.2375161082474	2.5447406572165	8.2545908505155	8.8922114037187		
80	16090	1497291089	2.0752840909091	1.4880050505051	9.8777619949495	10.382003189622		
81	16090	1497291090	0.23895202020202	1.1482796717172	9.2759232954545	9.3553291751657		
82	16090	1497291091	0.19140625	1.0718359375	9.3409375	9.4043990311633		
83	16090	1497291092	0.1813671875	1.0635546875	9.3393359375	9.4022808789278		
84	16090	1497291093	0.17219065656566	1.0716145833333	9.3384232954545	9.4014781297531		
85	16090	1497291094	0.16617506377551	1.064453125	9.3350605867347	9.397266967495		
86	16090	1497291095	0.17061237373737	1.074889520202	9.338226010101	9.4016177044772		
87	16090	1497291096	0.1715234375	1.07671875	9.3383984375	9.4020709267384		
88	16090	1497291097	0.169921875	1.06953125	9.340390625	9.4032976769612		
89	16090	1497291098	0.165625	1.0719140625	9.3400390625	9.4030501499856		
90	16090	1497291099	0.16958648989899	1.0683791035354	9.3411458333333	9.4038147229515		
91	16090	1497291100	0.6692578125	1.0898828125	9.32203125	9.41726319187		
92	16090	1497291101	1.3138809974747	1.0713778409091	9.3062657828283	9.4641996537259	s	d
93	16090	1497291102	1.313984375	1.011953125	9.315546875	9.4677805538322		
94	16090	1497291103	0.779296875	1.0134765625	9.3391015625	9.4283929313822		
95	16090	1497291104	0.83777104591837	1.0195711096939	9.3343829719388	9.4284888466632		
96	16090	1497291105	0.7885101010101	1.0265151515152	9.3353061868687	9.4260608131257		
97	16090	1497291106	0.70884900990099	1.0158570544554	9.3319152227723	9.416175223546		
98	16090	1497291107	1.0339725378788	1.0198074494949	9.3204703282828	9.434567104696		
99	16090	1497291108	1.2919140625	1.0333984375	9.2994921875	9.4477992884062		
100	16090	1497291109	1.0851253094059	1.0436262376238	9.3225556930693	9.4508726873192		
101	16090	1497291110	1.0734690656566	1.0024857954545	9.303345959596	9.4248952525131		
102	16090	1497291111	0.907109375	1.037109375	9.328515625	9.4404582726627		
103	16090	1497291112	0.3102509469697	1.0033143939394	9.3733033459596	9.4382639904214		
104	16090	1497291113	0.2765234375	0.99015625	9.36265625	9.424960682226		
105	16090	1497291114	0.25562021683673	1.0423708545918	9.3345025510204	9.4015410899043		
106	16090	1497291115	0.2605106314433	1.0030202963918	9.3660196520619	9.4339252258104		
107	16090	1497291116	0.2923828125	1.0087109375	9.3659375	9.4327466783153		
108	16090	1497291117	0.25142045454545	1.0171243686869	9.3701862373737	9.4339956969821		
109	16090	1497291118	1.1052295918367	2.6138791454082	8.6583625637755	9.2575128778169		
110	16090	1497291119	2.06640625	2.391015625	8.9957421875	9.7258423845562		
111	16090	1497291120	0.4738671875	1.081328125	9.2816796875	9.3694306355887		
112	16090	1497291121	0.4682421875	0.965234375	9.25640625	9.3275618608642		
113	16090	1497291122	0.90112058080808	0.88806029040404	9.3485243055556	9.4415144885067		
114	16090	1497291123	0.86324139030612	0.94208386479592	9.187181122449	9.2862064811363		
115	16090	1497291124	0.6480859375	0.920078125	9.375390625	9.4518922252991		
116	16090	1497291125	0.66762066831683	0.98893873762376	9.4124381188119	9.5018127936919		
117	16090	1497291126	0.71915270618557	0.99653672680412	9.2566849226804	9.3535490855936		
118	16090	1497291127	0.74234375	0.9749609375	9.37890625	9.4706346239987		
119	16090	1497291128	0.7294921875	1.06734375	8.9755859375	9.1026421609876		
120	16090	1497291129	0.5780078125	1.0463671875	9.346875	9.4447127065715		
121	16090	1497291130	0.49254261363636	1.089172979798	9.2729245580808	9.3738677918772		
122	16090	1497291131	0.551015625	1.145078125	9.36625	9.5034675087028		
123	16090	1497291132	0.48224431818182	1.0782039141414	9.3491950757576	9.4393922733046		
124	16090	1497291133	0.49352904040404	1.0453361742424	9.3139993686869	9.3899980820159		
125	16090	1497291134	0.47515625	1.0805859375	9.3226953125	9.3987616148318		
126	16090	1497291135	0.44626913265306	1.079440369898	9.3471380739796	9.4216553835574		
127	16090	1497291136	0.2366796875	1.1997265625	9.3549609375	9.4466153769969		
128	16090	1497291137	0.1182922979798	1.3517597853535	9.2534327651515	9.3592204278197		
129	16090	1497291138	0.082149621212121	1.6234217171717	9.2459753787879	9.3903139394491		
130	16090	1497291139	0.1328515625	1.6289453125	9.248359375	9.3941803886401		
131	16090	1497291140	0.2912890625	1.616328125	9.2271484375	9.3739470812743		
132	16090	1497291141	0.31616950757576	1.5903566919192	9.2271938131313	9.3703689813637		
133	16090	1497291142	0.143828125	1.5858203125	9.253359375	9.3921353375621		
134	16090	1497291143	0.075323547979798	1.6139125631313	9.2414378156566	9.3826260652319		
135	16090	1497291144	0.104609375	1.644453125	9.2479296875	9.3955442542865		
136	16090	1497291145	0.1190625	1.671015625	9.228359375	9.3809866263279		
137	16090	1497291146	0.1077178030303	1.679016729798	9.2249053030303	9.3785626537416		
138	16090	1497291147	0.14050542091837	1.7017299107143	9.2100605867347	9.3700553340987		
139	16090	1497291148	0.12719228316327	1.6492745535714	9.2224170918367	9.3714785304015		
140	16090	1497291149	0.2595703125	1.425078125	9.252265625	9.3679140232565		
141	16090	1497291150	0.49515625	1.1465625	9.34046875	9.4316518459952		
142	16090	1497291151	0.30677872474747	1.0992345328283	9.3451309974747	9.423992822165		
143	16090	1497291152	0.12393465909091	1.1139125631313	9.3256786616162	9.3954192338141		
144	16090	1497291153	0.166328125	1.0830078125	9.325546875	9.393934296789		
145	16090	1497291154	0.0991015625	1.1227734375	9.321640625	9.3904578679685		
146	16090	1497291155	0.1151953125	1.096875	9.3326953125	9.3990489392279		
147	16090	1497291156	0.1311158459596	1.1003393308081	9.3158933080808	9.3844218995115		
148	16090	1497291157	0.09328125	1.0988671875	9.3247265625	9.3905008988919		
149	16090	1497291158	0.1032591540404	1.1118607954545	9.3133285984848	9.3811359360792		
150	16090	1497291159	0.1409375	1.093046875	9.3249609375	9.392436219473		
151	16090	1497291160	0.099296875	1.1140625	9.3292578125	9.3970416782797		
152	16090	1497291161	0.10866477272727	1.1426767676768	9.3272569444444	9.3983295428961		
153	16090	1497291162	0.1295703125	1.10359375	9.3329296875	9.4010900506294		
154	16090	1497291163	0.077890625	1.1097265625	9.311171875	9.378092602603		
155	16090	1497291164	0.3000390625	1.08296875	9.3403515625	9.4091756405859		
156	16090	1497291165	0.416875	1.0822265625	9.3308203125	9.4068958868689		
157	16090	1497291166	0.188203125	1.0867578125	9.305625	9.3733544851045		
158	16090	1497291167	0.167421875	1.114609375	9.35515625	9.428844702511		
159	16090	1497291168	0.1235546875	1.1354296875	9.3373828125	9.4085356050679		
160	16090	1497291169	0.1424609375	1.1158984375	9.3282421875	9.4010596076206		
161	16090	1497291170	0.14556760204082	1.1136399872449	9.3065210459184	9.3779652590663		
162	16090	1497291171	0.25116027227723	1.0715114480198	9.3089418316832	9.3767077167381		
163	16090	1497291172	0.50911458333333	1.1076783459596	9.3171953914141	9.4061620344617		
164	16090	1497291173	0.5080859375	1.086875	9.320078125	9.4005262674806		
165	16090	1497291174	0.69351881377551	1.0629783163265	9.3086336096939	9.4046848159373		
166	16090	1497291175	0.6918359375	1.0822265625	9.294921875	9.386406773855		
167	16090	1497291176	0.4988671875	1.0658984375	9.2964453125	9.3757854583388		
168	16090	1497291177	0.40329071969697	1.0845170454545	9.3210621843434	9.3998259944009		
169	16090	1497291178	0.4456640625	1.0630078125	9.313046875	9.3879452307794		
170	16090	1497291179	0.48785581683168	0.97474474009901	9.3292465965347	9.4147664273588		
171	16090	1497291180	0.4285827020202	0.87697285353535	9.3726720328283	9.4320114158385		
172	16090	1497291181	0.44704861111111	0.66871843434343	9.3686868686869	9.4105005350232		
173	16090	1497291182	0.53547512755102	0.61650988520408	9.4068080357143	9.4441446910213		
174	16090	1497291183	0.5390625	0.63977413366337	9.3743038366337	9.4142850493328		
175	16090	1497291184	0.47798295454545	0.68185763888889	9.4245975378788	9.4653121685901		
176	16090	1497291185	0.35310132575758	0.65636837121212	9.4077493686869	9.4391397217183		
177	16090	1497291186	0.2841015625	0.64125	9.43140625	9.4586286540544		
178	16090	1497291187	0.259375	0.591015625	9.4041015625	9.4292073932485		
179	16090	1497291188	0.37190594059406	0.73940284653465	9.4100788985149	9.4486383140568		
180	16090	1497291189	0.25883838383838	0.94910037878788	9.4156407828283	9.4689612363426		
181	16090	1497291190	0.15122215346535	1.0238242574257	9.3195003094059	9.3810708823277		
182	16090	1497291191	0.064591224747475	1.0877525252525	9.34375	9.4083041960609		
183	16090	1497291192	0.10375	1.075703125	9.323671875	9.3875465614258		
184	16090	1497291193	0.0917578125	1.0810546875	9.3401953125	9.4042702982098		
185	16090	1497291194	0.077390160891089	1.0678759282178	9.3246828589109	9.387151897901		
186	16090	1497291195	0.14497422680412	1.0835212628866	9.3360180412371	9.4009705109397		
187	16090	1497291196	0.2552599009901	1.0985071163366	9.3230971534653	9.3916884569078		
188	16090	1497291197	0.25833601804124	1.0841655927835	9.3283666237113	9.3957420706708		
189	16090	1497291198	0.264375	1.088125	9.3279296875	9.3952672336888		
190	16090	1497291199	0.118671875	1.086796875	9.329375	9.3936637405677		
191	16090	1497291200	0.103359375	1.07375	9.3139453125	9.3767654183056		
192	16090	1497291201	0.096739477040816	1.1012834821429	9.3598134566327	9.4250890053608		
193	16090	1497291202	0.0673828125	1.076640625	9.3816015625	9.4437515367284		
194	16090	1497291203	0.213515625	1.0786328125	9.3750390625	9.4404792314088		
195	16090	1497291204	0.58767361111111	1.0643150252525	9.3632023358586	9.4428873067343		
196	16090	1497291205	0.74546875	1.078828125	9.38859375	9.4805312832374		
197	16090	1497291206	0.705703125	1.1006640625	9.371171875	9.462681098708		
198	16090	1497291207	0.4998046875	1.0721484375	9.363671875	9.4391819920742		
199	16090	1497291208	0.15479008838384	1.0795849116162	9.3436710858586	9.4087727429615		
200	16090	1497291209	0.145703125	1.0898046875	9.3741796875	9.4396736719646		
201	16090	1497291210	0.14958175505051	1.088896780303	9.3635969065657	9.4299175897832		
202	16090	1497291211	0.2025390625	1.0634765625	9.362734375	9.4325091796847		
203	16090	1497291212	0.26036352040816	1.1641820790816	9.3649952168367	9.4503867586083		
204	16090	1497291213	0.591875	1.0772265625	9.348671875	9.4366575633138		
205	16090	1497291214	0.59917091836735	1.107102997449	9.3685427295918	9.4603146913651		
206	16090	1497291215	0.54111426767677	1.0727588383838	9.3849826388889	9.4659469002781		
207	16090	1497291216	0.5554296875	1.0768359375	9.359296875	9.4387991135688		
208	16090	1497291217	0.72068378712871	1.090114480198	9.3460705445545	9.4395319553175		
209	16090	1497291218	0.79360006313131	1.0785984848485	9.3451704545455	9.4416165823432		
210	16090	1497291219	0.8008203125	1.07015625	9.3457421875	9.4420549199258		
211	16090	1497291220	0.936796875	1.08	9.3377734375	9.4472246606516		
212	16090	1497291221	0.9103125	1.0825	9.346875	9.4544058022899		
213	16090	1497291222	0.7830859375	1.064296875	9.3490234375	9.4426573903478		
214	16090	1497291223	0.85373263888889	1.0720091540404	9.3486821338384	9.4494509319129		
215	16090	1497291224	1.1650489267677	1.0806107954545	9.33984375	9.4757161123176		
216	16090	1497291225	1.365546875	1.086875	9.3553125	9.5175855913339		
217	16090	1497291226	1.076809630102	1.080397002551	9.3358179209184	9.4652965213116		
218	16090	1497291227	0.9294921875	1.054921875	9.368984375	9.5181807230232		
219	16090	1497291228	0.12346117424242	1.0758759469697	9.3587436868687	9.4214379001535		
220	16090	1497291229	0.20606435643564	1.0717821782178	9.3512530940594	9.4182102019907	s	s
221	16090	1497291230	0.17010309278351	1.0901659149485	9.3534954896907	9.4199416732626		
222	16090	1497291231	0.1751171875	1.0773046875	9.3491015625	9.4145383132554		
223	16090	1497291232	0.044704861111111	1.0827809343434	9.3778803661616	9.4404486060932		
224	16090	1497291233	0.22130102040816	1.0814732142857	9.3753587372449	9.4529030328018		
225	16090	1497291234	0.12018623737374	1.1020754419192	9.3540088383838	9.4195928882925		
226	16090	1497291235	0.1255859375	1.1	9.36453125	9.4299255004716		
227	16090	1497291236	0.17463699494949	1.2075836489899	9.3613478535354	9.4497952220561		
228	16090	1497291237	0.17073074494949	1.0254103535354	9.3668323863636	9.4268356520971		
229	16090	1497291238	0.16804766414141	1.0683396464646	9.3538904671717	9.4163075548072		
230	16090	1497291239	0.16202965561224	1.0695153061224	9.3569435586735	9.4193423476955		
231	16090	1497291240	0.16580290841584	1.0695389851485	9.3569384282178	9.4194223237919		
232	16090	1497291241	0.16674558080808	1.0722853535354	9.3629261363636	9.4257071226928		
233	16090	1497291242	0.16398278061224	1.0701132015306	9.3621253188776	9.4246172615698		
234	16090	1497291243	0.1662109375	1.06859375	9.3630859375	9.4254723972573		
235	16090	1497291244	0.1662890625	1.072890625	9.35484375	9.4178520404019		
236	16090	1497291245	0.1625541460396	1.0722462871287	9.3589108910891	9.4217094760696		
237	16090	1497291246	0.16733099489796	1.0723054846939	9.3567442602041	9.4196097304898		
238	16090	1497291247	0.16863952020202	1.0681029040404	9.3612294823232	9.4237529713551		
239	16090	1497291248	0.1659765625	1.067578125	9.362421875	9.4246660650192		
240	16090	1497291249	0.16912902227723	1.0725556930693	9.3566290222772	9.4196110832991		
241	16090	1497291250	0.464375	1.060390625	9.364140625	9.440233024372	s	d
242	16090	1497291251	0.9185211489899	1.05078125	9.3579545454545	9.469388236161		
243	16090	1497291252	1.0425	1.0243359375	9.4147265625	9.5302055025113		
244	16090	1497291253	0.99451546717172	1.0398910984848	9.3705808080808	9.481716852298		
245	16090	1497291254	1.1635495580808	1.0392597853535	9.4286221590909	9.5585732155381		
246	16090	1497291255	1.1562101403061	1.0559231505102	9.4812659438776	9.6139147382414		
247	16090	1497291256	1.202890625	1.2613671875	9.37734375	9.5490074358427		
248	16090	1497291257	1.09734375	1.228359375	9.4243359375	9.5780202204448		
249	16090	1497291258	0.97395833333333	1.1264599116162	9.4731297348485	9.5935715539236		
250	16090	1497291259	0.9378125	1.0954296875	9.4681640625	9.5806462705976		
251	16090	1497291260	0.8237890625	0.966171875	9.4271484375	9.5197208053362		
252	16090	1497291261	0.7544140625	1.0413671875	9.408671875	9.5024768703302		
253	16090	1497291262	0.6861328125	1.0614453125	9.3851953125	9.4730055651428		
254	16090	1497291263	0.41710069444444	1.2421875	9.368805239899	9.4843308593264		
255	16090	1497291264	0.2069921875	1.371875	9.338828125	9.4513997286928		
256	16090	1497291265	0.142734375	1.31890625	9.3543359375	9.452950174545		
257	16090	1497291266	0.1259375	1.4025390625	9.279140625	9.3935994832299		
258	16090	1497291267	0.25213434278351	1.4186130798969	9.3110099871134	9.4399435163322		
259	16090	1497291268	0.20884627525253	1.4225063131313	9.3083175505051	9.4263017704289		
260	16090	1497291269	0.19203756313131	1.4143386994949	9.2528803661616	9.3664950955191		
261	16090	1497291270	0.1434375	1.3312109375	9.2180078125	9.3223615334765		
262	16090	1497291271	0.21010890151515	1.4231770833333	9.2229324494949	9.3419977521666		
263	16090	1497291272	0.12180397727273	1.4118529040404	9.2403330176768	9.3530308750537		
264	16090	1497291273	0.1166015625	1.4128125	9.25515625	9.3689930799197		
265	16090	1497291274	0.1053515625	1.358515625	9.3304296875	9.4369918480453		
266	16090	1497291275	0.1079296875	1.2894921875	9.3109375	9.405764356847		
267	16090	1497291276	0.1590625	1.1924609375	9.3475390625	9.4288370418596		
268	16090	1497291277	0.1817578125	1.1201171875	9.420625	9.4947247370218		
269	16090	1497291278	0.1257421875	1.09625	9.3255859375	9.3939565234691		
270	16090	1497291279	0.1269921875	1.0801171875	9.3118359375	9.3769665753844		
271	16090	1497291280	0.1315625	1.08921875	9.3243359375	9.3913488424195		
272	16090	1497291281	0.22046396683673	1.0929528061224	9.369778380102	9.4386251596951		
273	16090	1497291282	0.4625390625	1.0673828125	9.3907421875	9.4713382280652		
274	16090	1497291283	0.50858601485149	1.1147122524752	9.3705909653465	9.4537496519045		
275	16090	1497291284	0.41903409090909	1.1028251262626	9.3588620580808	9.4378270349043		
276	16090	1497291285	0.7759375	1.1259765625	9.3452734375	9.4489844004627		
277	16090	1497291286	0.76822916666667	1.1378235479798	9.3491556186869	9.4522887224837		
278	16090	1497291287	0.76128472222222	1.1441761363636	9.3671875	9.4708779395909		
279	16090	1497291288	0.46823705808081	1.1202256944444	9.358704229798	9.4412796106839		
280	16090	1497291289	0.20123106060606	1.0907118055556	9.3706991792929	9.4389780477417		
281	16090	1497291290	0.138359375	1.1170703125	9.378046875	9.4478093195525		
282	16090	1497291291	0.229921875	1.10265625	9.31828125	9.3888137105042		
283	16090	1497291292	0.2055859375	1.1019921875	9.345703125	9.4196663560054		
284	16090	1497291293	0.15390625	1.1599609375	9.3178125	9.3964063249593		
285	16090	1497291294	0.1556640625	1.168828125	9.475	9.5529671020131		
286	16090	1497291295	0.135390625	1.1655859375	9.4683203125	9.5441352535		
287	16090	1497291296	0.1485922029703	1.1562886757426	9.4304610148515	9.5048205867677		
288	16090	1497291297	0.15447443181818	1.1433869949495	9.4536773989899	9.5258986483168		
289	16090	1497291298	0.10108901515152	1.1631549873737	9.4673295454545	9.5406852849876		
290	16090	1497291299	0.12039758663366	1.1957766089109	9.4211014851485	9.49942957362		
291	16090	1497291300	0.19460227272727	1.2138178661616	9.4361979166667	9.5177032151851		
292	16090	1497291301	0.1400726010101	1.1929845328283	9.3746448863636	9.4532057701132		
293	16090	1497291302	0.098671875	1.2173828125	9.3473046875	9.4288560121402		
294	16090	1497291303	0.09670928030303	1.2548926767677	9.3262705176768	9.4125681218067		
295	16090	1497291304	0.082959467821782	1.2203357054455	9.2141862623762	9.2983902560064		
296	16090	1497291305	0.07625	1.235078125	9.18	9.2664992943072		
297	16090	1497291306	0.0725	1.231484375	9.1777734375	9.2624060558012		
298	16090	1497291307	0.3147490530303	1.3205492424242	9.3182212752525	9.4199602585329		
299	16090	1497291308	0.31040877525253	1.2748579545455	9.3306107954545	9.4246783240525		
300	16090	1497291309	0.2455078125	1.193671875	9.30875	9.3895067343211		
301	16090	1497291310	0.20237531565657	1.1409406565657	9.3175899621212	9.3906368865342		
302	16090	1497291311	0.3372265625	1.0757421875	9.3611328125	9.4312003929612		
303	16090	1497291312	0.72364267676768	1.1061000631313	9.3490767045455	9.4442172640425		
304	16090	1497291313	0.72305082070707	1.0904750631313	9.3446180555556	9.437309032828		
305	16090	1497291314	0.8464453125	1.10671875	9.3459765625	9.4506078542722		
306	16090	1497291315	1.13046875	1.111171875	9.333671875	9.4689524947954		
307	16090	1497291316	1.097578125	1.093359375	9.330390625	9.4592088173043		
308	16090	1497291317	1.0890864158163	1.1122847576531	9.3254942602041	9.4554311069343		
309	16090	1497291318	1.0980859375	1.1033984375	9.3408984375	9.4701525550184		
310	16090	1497291319	1.286773989899	1.122040719697	9.3319917929293	9.4877122001867		
311	16090	1497291320	1.3491556186869	1.113952020202	9.3328203914141	9.4959513445447		
312	16090	1497291321	0.8464573019802	1.1057781559406	9.3466893564356	9.4547335310006		
313	16090	1497291322	0.55614741161616	1.0974984217172	9.3507339015152	9.4407282179285		
314	16090	1497291323	0.12396364795918	1.0958625637755	9.3510443239796	9.4181904881688		
315	16090	1497291324	0.1335546875	1.1062890625	9.338984375	9.4074753851493	s	s
316	16090	1497291325	0.1453515625	1.0999609375	9.3683984375	9.4365858470571		
317	16090	1497291326	0.0083705357142857	1.0964205994898	9.3593351403061	9.4234239453051		
318	16090	1497291327	0.047427398989899	1.0985243055556	9.362610479798	9.4286225510841		
319	16090	1497291328	0.075126262626263	1.100891729798	9.3696732954545	9.441628079446		
320	16090	1497291329	0.10247001262626	1.0941840277778	9.3622159090909	9.4315782846156		
321	16090	1497291330	0.0409375	1.0875	9.35984375	9.4229786448435		
322	16090	1497291331	0.03890625	1.09296875	9.3661328125	9.4298883047771		
323	16090	1497291332	0.037602588383838	1.0912247474747	9.3590988005051	9.4226497315103		
324	16090	1497291333	0.039023042929293	1.092408459596	9.3598484848485	9.4235747809754		
325	16090	1497291334	0.037090037128713	1.0886834777228	9.3639000618812	9.4271278546802		
326	16090	1497291335	0.037878787878788	1.0908301767677	9.3518386994949	9.4154495386288		
327	16090	1497291336	0.03828125	1.089453125	9.3621484375	9.425475912571		
328	16090	1497291337	0.042534722222222	1.0949731691919	9.3589015151515	9.4229325638519		
329	16090	1497291338	0.041214923469388	1.0918367346939	9.361328125	9.4249798115845		
330	16090	1497291339	0.07294245049505	1.1030708539604	9.3552753712871	9.4241486968403		
331	16090	1497291340	0.046356823979592	1.0510602678571	9.3575414540816	9.4172421621041		
332	16090	1497291341	0.055963010204082	0.97237723214286	9.3778698979592	9.4284282064423		
333	16090	1497291342	0.22762784090909	0.9637389520202	9.365845959596	9.4209450918826	s	d
334	16090	1497291343	0.79028566919192	0.91552241161616	9.4032118055556	9.4820136161201		
335	16090	1497291344	1.1215965346535	0.90806775990099	9.3978186881188	9.5088388230698		
336	16090	1497291345	1.1841856060606	0.88959911616162	9.4112610479798	9.527924959149		
337	16090	1497291346	1.1840460526316	0.91957236842105	9.3987253289474	9.5184860669424		
338	16090	1497291347	1.1608664772727	0.90364583333333	9.4111426767677	9.5260807952232		
339	16090	1497291348	1.14953125	0.9062109375	9.3994140625	9.5134654692097		
340	16090	1497291349	1.1133203125	0.9584375	9.3864453125	9.5016189662857		
341	16090	1497291350	0.981875	0.9222265625	9.4101171875	9.5073754452708		
342	16090	1497291351	0.83484375	0.8765625	9.406171875	9.485175741629		
343	16090	1497291352	0.74784757653061	0.83099489795918	9.4398517219388	9.5076130664604		
344	16090	1497291353	0.691328125	0.749765625	9.4215625	9.4786754210568		
345	16090	1497291354	0.61077008928571	0.7043606505102	9.4475047831633	9.4956051869419		
346	16090	1497291355	0.6153125	0.5821875	9.5009375	9.5433278350902		
347	16090	1497291356	0.5328125	0.675859375	9.4434765625	9.4855097244301		
348	16090	1497291357	0.5181775990099	0.81466584158416	9.3507889851485	9.4040276537893		
349	16090	1497291358	0.47237723214286	0.85861766581633	9.4990832270408	9.5523252563957		
350	16090	1497291359	0.507421875	0.913515625	9.5001953125	9.5603616626607		
351	16090	1497291360	0.5336662371134	0.83948131443299	9.5417606314433	9.5965549811701		
352	16090	1497291361	0.5491015625	0.846796875	9.52765625	9.5835281563233		
353	16090	1497291362	0.51052295918367	0.82238520408163	9.4923070790816	9.5439047399654		
354	16090	1497291363	0.28256497524752	0.72752939356436	9.3516011757426	9.390303461534		
355	16090	1497291364	0.23236268939394	0.54584911616162	9.4512705176768	9.4742128910915		
356	16090	1497291365	0.19472064393939	0.43004261363636	9.5494791666667	9.5659801781212		
357	16090	1497291366	0.1805078125	0.468828125	9.49203125	9.5120974534883		
358	16090	1497291367	0.38080018939394	0.51053503787879	9.4722222222222	9.4991679296381		
359	16090	1497291368	1.0315980816832	0.57723545792079	9.4834854579208	9.5622654241469		
360	16090	1497291369	1.2584043560606	0.74041193181818	9.3934264520202	9.5121239541473		
361	16090	1497291370	0.75457702020202	0.85949337121212	9.3671875	9.4459301522922		
362	16090	1497291371	0.360546875	0.84	9.343984375	9.3923880936836		
363	16090	1497291372	0.43183992346939	0.82912149234694	9.3230628188776	9.3745852689667		
364	16090	1497291373	0.1966796875	0.8248046875	9.3353125	9.376270479516		
365	16090	1497291374	0.19728496287129	0.78387995049505	9.3335396039604	9.3701245964176		
366	16090	1497291375	0.22704081632653	0.78698979591837	9.3513233418367	9.3883252337999		
367	16090	1497291376	0.24037247474747	0.7706360479798	9.350220959596	9.3860865123157	s	x
368	16090	1497291377	0.23875473484848	0.79099589646465	9.3715672348485	9.4093228185059		
369	16090	1497291378	0.27821180555556	0.80531881313131	9.4203361742424	9.4604026138361		
370	16090	1497291379	0.60338025990099	0.79331683168317	9.4091506806931	9.463590661889		
371	16090	1497291380	0.73200757575758	0.83712121212121	9.3907039141414	9.4585657374158		
372	16090	1497291381	1.0341996173469	0.83745216836735	9.3887117346939	9.484093926428		
373	16090	1497291382	0.82764175257732	0.83130637886598	9.4033505154639	9.4778818128582		
374	16090	1497291383	0.65604864690722	0.85510631443299	9.3876852448454	9.4507154885036		
375	16090	1497291384	0.58515625	0.8461328125	9.3880859375	9.4452792771185		
376	16090	1497291385	0.71152935606061	0.85124684343434	9.3841934974747	9.4503840075051		
377	16090	1497291386	0.71396683673469	0.84721779336735	9.3913823341837	9.4573850844017		
378	16090	1497291387	0.69949494949495	0.8337279040404	9.3860085227273	9.4493545172232		
379	16090	1497291388	0.91489109848485	0.83293876262626	9.3805634469697	9.4625108369452		
380	16090	1497291389	0.94144492574257	0.82479888613861	9.3914758663366	9.4754062239926		
381	16090	1497291390	0.65518465909091	0.83727904040404	9.3864820075758	9.4493706848662		
382	16090	1497291391	0.465546875	0.831328125	9.3916796875	9.4517294674378		
383	16090	1497291392	0.038589015151515	0.83029513888889	9.3942945075758	9.4312198587821	s	s
384	16090	1497291393	0.0424609375	0.805	9.400234375	9.435004543065		
385	16090	1497291394	0.01696654040404	0.81916824494949	9.4053819444444	9.4410884440252		
386	16090	1497291395	0.04714573019802	1.0155089727723	9.345838490099	9.4039713177133		
387	16090	1497291396	0.052578125	1.18578125	9.3483203125	9.4234353534187		
388	16090	1497291397	0.047265625	1.182109375	9.339140625	9.4138424497819		
389	16090	1497291398	0.048828125	1.184375	9.3355859375	9.4106000364681		
390	16090	1497291399	0.047979797979798	1.1802793560606	9.3351089015152	9.4096236197048		
391	16090	1497291400	0.049744897959184	1.1820790816327	9.342115752551	9.4168076621613		
392	16090	1497291401	0.049466274752475	1.1841738861386	9.3449876237624	9.4199206662974		
393	16090	1497291402	0.051063144329897	1.1808150773196	9.3374677835052	9.4120548411555		
394	16090	1497291403	0.053333849009901	1.1842125618812	9.3387608292079	9.4137863039684		
395	16090	1497291404	0.049609375	1.1845703125	9.3341015625	9.4091885789143		
396	16090	1497291405	0.0546875	1.1841461489899	9.3396859217172	9.4147154271986		
397	16090	1497291406	0.052535076530612	1.1853077168367	9.3380500637755	9.413226533718		
398	16090	1497291407	0.0490234375	1.17953125	9.3298828125	9.4043653903387		
399	16090	1497291408	0.052212252475248	1.1825495049505	9.3378712871287	9.4127061680703		
400	16090	1497291409	0.052432345360825	1.1778753221649	9.3528108891753	9.4270470207294		
401	16090	1497291410	0.050819925742574	1.1849087252475	9.3397277227723	9.4148230185062		
402	16090	1497291411	0.053828125	1.0301953125	9.3491015625	9.4072752940086		
403	16090	1497291412	0.050130208333333	0.84574381510417	9.394287109375	9.4325084455446		
404	16090	1497291413	0.60881121134021	0.81660760309278	9.3970682989691	9.4531288442139	s	d
405	16090	1497291414	0.99980271464646	0.76349431818182	9.4320549242424	9.5164564979831		
406	16090	1497291415	1.20296875	0.7648046875	9.4181640625	9.5265654516207		
407	16090	1497291416	1.1916015625	0.7591796875	9.4307421875	9.5370504665867		
408	16090	1497291417	1.1657196969697	0.76167929292929	9.4484690656566	9.551351966029		
409	16090	1497291418	1.140943877551	0.78045280612245	9.4400111607143	9.543139547616		
410	16090	1497291419	1.1151171875	0.7655078125	9.4299609375	9.5274414245202		
411	16090	1497291420	1.0488083964646	0.8018860479798	9.4502051767677	9.5449265660698		
412	16090	1497291421	0.91875789141414	0.82737531565657	9.4421953914141	9.5332522797934		
413	16090	1497291422	0.77296875	0.7884765625	9.42078125	9.4924920776542		
414	16090	1497291423	0.65485767326733	0.78956528465347	9.3604965965347	9.4202669716419		
415	16090	1497291424	0.53874362244898	0.75681600765306	9.3318319515306	9.3813586686878		
416	16090	1497291425	0.408984375	0.8101171875	9.3478125	9.3954987186868		
417	16090	1497291426	0.3404296875	0.758984375	9.28953125	9.3312634604928		
418	16090	1497291427	0.364921875	0.7971875	9.4458984375	9.4911564878531		
419	16090	1497291428	0.36513573232323	0.75702335858586	9.4281486742424	9.4702174334606		
420	16090	1497291429	0.35180165816327	0.69439572704082	9.5216438137755	9.5617187428946		
421	16090	1497291430	0.36509627525253	0.64449179292929	9.4743529040404	9.5084837652649		
422	16090	1497291431	0.314921875	0.5889453125	9.4737109375	9.5022385499901		
423	16090	1497291432	0.23	0.4943359375	9.500625	9.5217518218812		
424	16090	1497291433	0.2969921875	0.4930859375	9.5014453125	9.5229934729218		
425	16090	1497291434	0.2851171875	0.4910546875	9.5225	9.5447622975645		
426	16090	1497291435	0.2772265625	0.4728515625	9.6199609375	9.6394623416883		
427	16090	1497291436	0.22924558080808	0.4832702020202	9.6209753787879	9.6394641186107		
428	16090	1497291437	0.13853377525253	0.50994318181818	9.6875	9.7067232062869		
429	16090	1497291438	0.2600220959596	0.44807449494949	9.6850142045455	9.7044550541653		
430	16090	1497291439	0.2662109375	0.422109375	9.710859375	9.7282633770597		
431	16090	1497291440	0.19464172979798	0.4425110479798	9.6812263257576	9.6966677784777		
432	16090	1497291441	0.17329545454545	0.49112215909091	9.6652067550505	9.6855146271554		
433	16090	1497291442	0.16788983585859	0.44298453282828	9.5344460227273	9.5499306117049		
434	16090	1497291443	0.1274609375	0.5333203125	9.5135546875	9.535125902822		
435	16090	1497291444	0.2321875	0.646953125	9.503203125	9.5357878443935		
436	16090	1497291445	0.64031559405941	0.70324102722772	9.433864480198	9.4861091139629		
437	16090	1497291446	0.53060567010309	0.83227287371134	9.3100837628866	9.3647946124077		
438	16090	1497291447	0.63807397959184	0.85949457908163	9.3641980229592	9.4293755408132		
439	16090	1497291448	0.801171875	0.820078125	9.37859375	9.4500218787009		
440	16090	1497291449	0.920625	0.8496875	9.36953125	9.4545883811686		
441	16090	1497291450	0.967890625	0.8420703125	9.391171875	9.4795610435062		
442	16090	1497291451	0.99629304846939	0.84785554846939	9.3932557397959	9.484874520699		
443	16090	1497291452	0.6325390625	0.8376171875	9.3190234375	9.379731266404		
444	16090	1497291453	0.48701862373737	0.83439867424242	9.330689709596	9.3819219642507		
445	16090	1497291454	0.36371970663265	0.81548947704082	9.3423549107143	9.3867320071479		
446	16090	1497291455	0.2808203125	0.85609375	9.349765625	9.3957214125497		
447	16090	1497291456	0.46164772727273	0.83652935606061	9.3551530934343	9.4058588573693		
448	16090	1497291457	0.3760546875	0.83390625	9.351171875	9.3982723692644		
449	16090	1497291458	0.27651515151515	0.8259154040404	9.3542061237374	9.3961072511544		
450	16090	1497291459	0.1487109375	0.8159765625	9.3562109375	9.3942709835346		
451	16090	1497291460	0.1610546875	0.8277734375	9.384296875	9.4232508938774		
452	16090	1497291461	0.5596875	0.8272265625	9.393203125	9.447365643286		
453	16090	1497291462	0.55366161616162	0.83577967171717	9.3750789141414	9.4294784504861		
454	16090	1497291463	0.63345025510204	0.81839923469388	9.4020647321429	9.4605657415399		
455	16090	1497291464	0.998515625	0.840234375	9.392109375	9.4841366239121		
456	16090	1497291465	0.86864741161616	0.82299558080808	9.3819839015152	9.459335918362		
457	16090	1497291466	0.65814393939394	0.83940972222222	9.3715277777778	9.4335411815446		
458	16090	1497291467	0.96306818181818	0.85108901515152	9.3823390151515	9.472457204596		
459	16090	1497291468	1.1076953125	0.834375	9.377265625	9.4803053661076		
460	16090	1497291469	0.95403251262626	0.84966856060606	9.3758680555556	9.4649952245938		
461	16090	1497291470	0.83965037128713	0.83315284653465	9.375	9.4522330663755		
462	16090	1497291471	1.3921638257576	0.86016414141414	9.3673453282828	9.5115071506829		
463	16090	1497291472	1.2148046875	0.84890625	9.374296875	9.4966069483535		
464	16090	1497291473	0.8677734375	0.85203125	9.3873828125	9.4702027870578		
465	16090	1497291474	0.3075495049505	0.85214263613861	9.3941831683168	9.4439117508919	s	s
466	16090	1497291475	0.17877998737374	0.81790561868687	9.3974510732323	9.4351737617936		
467	16090	1497291476	0.15740593112245	0.82501594387755	9.3993941326531	9.437068587239		
468	16090	1497291477	0.1580859375	1.0137109375	9.38953125	9.451655582854		
469	16090	1497291478	0.10203598484848	1.0719696969697	9.3590988005051	9.4210165037409		
470	16090	1497291479	0.0984375	1.0736328125	9.3609765625	9.4230563787181		
471	16090	1497291480	0.10212053571429	1.0719068877551	9.3604113520408	9.422287684292		
472	16090	1497291481	0.1064453125	1.0710546875	9.3675390625	9.4294038763731		
473	16090	1497291482	0.1004577020202	1.0725615530303	9.3634390782828	9.425412796332		
474	16090	1497291483	0.1021484375	1.06453125	9.3639453125	9.424973798216		
475	16090	1497291484	0.1021484375	1.0689453125	9.365546875	9.4270396609568		
476	16090	1497291485	0.1029296875	1.07109375	9.3637890625	9.4255254436549		
477	16090	1497291486	0.098879419191919	1.0665640782828	9.3615451388889	9.4228125366147		
478	16090	1497291487	0.10631961633663	1.0682626856436	9.3622370049505	9.4237832454117		
479	16090	1497291488	0.10321359536082	1.0733327963918	9.3589722938144	9.4210706035017		
480	16090	1497291489	0.10231983418367	1.0726642219388	9.3609295280612	9.4229777400142		
481	16090	1497291490	0.10245204207921	1.0693456064356	9.3611540841584	9.4228176629712		
482	16090	1497291491	0.098046875	1.080546875	9.343203125	9.4062521687462		
483	16090	1497291492	0.1228515625	1.0266015625	9.3690234375	9.4261164902969		
484	16090	1497291493	0.12488162878788	1.0207544191919	9.3665956439394	9.423036753957		
485	16090	1497291494	0.1157421875	1.0409375	9.3649609375	9.4239010221192		
486	16090	1497291495	0.12065972222222	0.97778566919192	9.3854166666667	9.4372975455506		
487	16090	1497291496	0.12055228960396	0.95351175742574	9.3818069306931	9.4311548136252		
488	16090	1497291497	0.120078125	0.96125	9.378203125	9.4283378328522		
489	16090	1497291498	0.12344547193878	0.9652024872449	9.3813775510204	9.4318967576068		
490	16090	1497291499	0.417578125	0.9137890625	9.39171875	9.450093378743	s	d
491	16090	1497291500	0.86623086734694	0.81935586734694	9.4233099489796	9.5006421585253		
492	16090	1497291501	1.1539453125	0.8837109375	9.4184765625	9.5312948130247		
493	16090	1497291502	1.1699810606061	0.98070549242424	9.399779040404	9.5242993974593		
494	16090	1497291503	1.1221590909091	1.0305397727273	9.3890467171717	9.513873380237		
495	16090	1497291504	1.115078125	0.97765625	9.4075	9.5253168500304		
496	16090	1497291505	1.0547265625	1.0271484375	9.3744921875	9.4905428292084		
497	16090	1497291506	0.9415234375	1.002578125	9.36515625	9.4673024453705		
498	16090	1497291507	0.78310448232323	1.0306976010101	9.3458017676768	9.4366320098766		
499	16090	1497291508	0.6354296875	1.0343359375	9.3134765625	9.3943056633613		
500	16090	1497291509	0.52829071969697	1.032867739899	9.2924558080808	9.3693305371306		
501	16090	1497291510	0.4499609375	1.00234375	9.301328125	9.3680891016644		
502	16090	1497291511	0.37775031887755	1.0479512117347	9.2505978954082	9.3202843242422		
503	16090	1497291512	0.3255078125	1.0114453125	9.2748828125	9.3379097894219		
504	16090	1497291513	0.29233099489796	1.0341996173469	9.2492028061224	9.3140727099024		
505	16090	1497291514	0.39828125	1.0459765625	9.3474609375	9.4211960468811		
506	16090	1497291515	0.33226799242424	1.1328519570707	9.3792613636364	9.4588043090667		
507	16090	1497291516	0.8379296875	1.41125	9.2858984375	9.4389586769223		
508	16090	1497291517	0.8465625	1.5950390625	9.2230859375	9.4110948107628		
509	16090	1497291518	0.922421875	1.60609375	9.2779296875	9.4682397321279		
510	16090	1497291519	0.95328125	1.56828125	9.2790234375	9.4634138113356		
511	16090	1497291520	1.1146484375	1.536171875	9.291328125	9.4913780952498		
512	16090	1497291521	1.31859375	1.3869921875	9.2952734375	9.4938684437937		
513	16090	1497291522	1.2626953125	1.40265625	9.2812890625	9.4776050954186		
514	16090	1497291523	1.1375644329897	1.3355347938144	9.296150128866	9.4654073124325		
515	16090	1497291524	0.83392636138614	1.2847694925743	9.3297880569307	9.4582791277757		
516	16090	1497291525	0.96385732323232	1.2443181818182	9.3262705176768	9.4601187122526		
517	16090	1497291526	1.0191796875	1.20984375	9.3372265625	9.4738546579913		
518	16090	1497291527	1.0397727272727	1.1749526515152	9.3278882575758	9.4647635270041		
519	16090	1497291528	1.0563616071429	1.1560507015306	9.3135363520408	9.4483324381672		
520	16090	1497291529	1.0650111607143	1.0888073979592	9.2960379464286	9.4221219578954		
521	16090	1497291530	1.1078515625	1.04359375	9.316796875	9.4421334982325		
522	16090	1497291531	1.105234375	1.05203125	9.3248046875	9.4503517864104		
523	16090	1497291532	1.106796875	1.0483203125	9.353125	9.4784679792249		
524	16090	1497291533	0.93895991161616	1.0221354166667	9.3376736111111	9.4426158744342		
525	16090	1497291534	0.90234375	1.0670375631313	9.3392124368687	9.4451707160028		
526	16090	1497291535	0.922265625	1.0444921875	9.3256640625	9.4310441673537		
527	16090	1497291536	1.041796875	1.0378125	9.344453125	9.4614396507275		
528	16090	1497291537	0.96519886363636	1.0678661616162	9.3727509469697	9.483949785238		
529	16090	1497291538	0.771796875	1.05453125	9.3973046875	9.4894869351077		
530	16090	1497291539	0.6721875	1.0542578125	9.4032421875	9.4878931636809		
531	16090	1497291540	0.70809659090909	1.0409169823232	9.4077493686869	9.4934964181624		
532	16090	1497291541	0.6454296875	1.0548828125	9.398828125	9.4819770876456		
533	16090	1497291542	0.5470703125	1.039140625	9.3925	9.4671096268275		
534	16090	1497291543	0.53416982323232	1.0695628156566	9.4175741792929	9.4946089575543		
535	16090	1497291544	0.3207421875	1.0579296875	9.415625	9.4825436376512		
536	16090	1497291545	0.26807133838384	1.0535037878788	9.411773989899	9.4761293882294		
537	16090	1497291546	0.290078125	1.0517578125	9.404140625	9.468817533464		
538	16090	1497291547	0.2682955994898	1.055006377551	9.3985570790816	9.4630693157797		
539	16090	1497291548	0.3436328125	1.0431640625	9.3528125	9.4185139278199		
540	16090	1497291549	0.61604324494949	1.0327493686869	9.3764599116162	9.4553771230004		
541	16090	1497291550	1.0845703125	1.05640625	9.346171875	9.4711363483587		
542	16090	1497291551	1.2190625	1.040078125	9.3526171875	9.4900646488381		
543	16090	1497291552	1.2533538510101	1.045257260101	9.3388573232323	9.481179527728		
544	16090	1497291553	1.0272663985149	1.0560024752475	9.3469214108911	9.4643432046006		
545	16090	1497291554	0.87715657552083	1.0327555338542	9.342041015625	9.4417759091702		
546	16090	1497291555	0.66710069444444	1.0518071338384	9.3526672979798	9.4372885864499		
547	16090	1497291556	0.87511837121212	1.0370107323232	9.3494318181818	9.4487496459373		
548	16090	1497291557	1.1235006313131	1.0377604166667	9.3523516414141	9.4770324538832		
549	16090	1497291558	1.1923046875	1.0448828125	9.3372265625	9.4713704509276		
550	16090	1497291559	0.858203125	1.0416015625	9.3433984375	9.4441392647149		
551	16090	1497291560	0.9095703125	1.0424609375	9.3493359375	9.4554681609535		
552	16090	1497291561	0.281484375	1.03828125	9.3516796875	9.4233221561662	s	s
553	16090	1497291562	0.21299130154639	1.0434922680412	9.3681942654639	9.4296621057929		
554	16090	1497291563	0.16325030940594	1.0350402227723	9.3671101485149	9.4261548072104		
555	16090	1497291564	0.1345091540404	1.0527541035354	9.3617029671717	9.4218024133679		
556	16090	1497291565	0.13571198453608	1.0531974871134	9.3594958118557	9.4197035542948		
557	16090	1497291566	0.13859375	1.057421875	9.365625	9.4263015318092		
558	16090	1497291567	0.145625	1.0526171875	9.3616015625	9.4218810556153		
559	16090	1497291568	0.12159653465347	1.0604501856436	9.3581760519802	9.4189819851446		
560	16090	1497291569	0.10815183080808	1.0630129419192	9.3656881313131	9.4265740493742		
561	16090	1497291570	0.109375	1.06484375	9.3665625	9.4276253256253		
562	16090	1497291571	0.10399907178218	1.0679919554455	9.3616955445545	9.4230753639475		
563	16090	1497291572	0.10578440656566	1.0632102272727	9.3771701388889	9.4379189455752		
564	16090	1497291573	0.10973011363636	1.0643939393939	9.3742503156566	9.4351763274896		
565	16090	1497291574	0.10690369897959	1.0625398596939	9.3653539540816	9.4260963995125		
566	16090	1497291575	0.1052734375	1.0640625	9.368359375	9.4292452487359		
567	16090	1497291576	0.10390625	1.06796875	9.369765625	9.4310695176612		
568	16090	1497291577	0.1005859375	1.0638671875	9.364921875	9.4257651432055		
569	16090	1497291578	0.099164603960396	1.0699257425743	9.3752320544554	9.4366851378321		
570	16090	1497291579	0.10092474489796	1.067721619898	9.3627232142857	9.4240007769873		
571	16090	1497291580	0.1037109375	1.065234375	9.361328125	9.4223763177131		
572	16090	1497291581	0.1013671875	1.0650390625	9.3563671875	9.4173905075671		
573	16090	1497291582	0.10538983585859	1.0673926767677	9.3719223484848	9.4331584285529		
574	16090	1497291583	0.1034765625	1.0676171875	9.3642578125	9.4257174762446		
575	16090	1497291584	0.10104955808081	1.0683791035354	9.3596117424242	9.4210071500264		
576	16090	1497291585	0.1037109375	1.0662109375	9.3669921875	9.4281280631652		
577	16090	1497291586	0.1001953125	1.06796875	9.369765625	9.4310393779252		
578	16090	1497291587	0.4731640625	1.07359375	9.3651171875	9.4446208650053	s	d
579	16090	1497291588	0.90640625	1.06421875	9.3816796875	9.4919876391991		
580	16090	1497291589	1.1789913366337	1.0505878712871	9.3904316212871	9.5227818860406		
581	16090	1497291590	0.90893308080808	1.0560684974747	9.3667534722222	9.4712056060471		
582	16090	1497291591	0.82441804846939	1.0472735969388	9.3934550382653	9.4885515024853		
583	16090	1497291592	0.8560546875	1.0403125	9.3206640625	9.4184367505415		
584	16090	1497291593	1.0366259282178	1.0365099009901	9.3410426980198	9.456400165496		
585	16090	1497291594	0.49056976010101	0.99100378787879	9.3615451388889	9.4332041654855		
586	16090	1497291595	0.2686328125	0.9888671875	9.3643359375	9.4243829307669		
587	16090	1497291596	0.23563762626263	0.88711332070707	9.4285827020202	9.4756198642571		
588	16090	1497291597	0.2344921875	0.8528125	9.361171875	9.4045336766192		
589	16090	1497291598	0.24833694306931	0.86401608910891	9.359375	9.4038931764004		
590	16090	1497291599	0.26315369897959	0.86882174744898	9.359693877551	9.404920799876		
591	16090	1497291600	0.289609375	0.898046875	9.3263671875	9.3751536884087		
592	16090	1497291601	0.29826732673267	0.89627165841584	9.3262685643564	9.3749416120086		
593	16090	1497291602	0.32234534438776	0.9137037627551	9.3275669642857	9.3786140469362		
594	16090	1497291603	0.31953125	0.95609375	9.33859375	9.3939660660012		
595	16090	1497291604	0.31230271464646	0.94606218434343	9.3547190656566	9.4090912196115		
596	16090	1497291605	0.280234375	1.02359375	9.332109375	9.3945145206189		
597	16090	1497291606	0.265625	1.027890625	9.3637890625	9.4251205783878		
598	16090	1497291607	0.24359375	1.068046875	9.3548046875	9.4199686754474		
599	16090	1497291608	0.31159248737374	1.0628156565657	9.3663983585859	9.4345299397414		
600	16090	1497291609	0.64654356060606	1.0729166666667	9.3234296085859	9.4098797814051		
601	16090	1497291610	0.659140625	1.0853515625	9.366328125	9.453874074898		
602	16090	1497291611	0.67424242424242	1.088226010101	9.3214172979798	9.4110415304725		
603	16090	1497291612	0.67960858585859	1.0728377525253	9.3372395833333	9.425434493636		
604	16090	1497291613	0.67424242424242	1.0793481691919	9.3518386994949	9.4399323761709		
605	16090	1497291614	0.6855859375	1.09015625	9.3284375	9.419177304865		
606	16090	1497291615	0.67140151515152	1.0555555555556	9.3516414141414	9.4369601760084		
607	16090	1497291616	0.67459753787879	1.0608428030303	9.3598090277778	9.4460612151595		
608	16090	1497291617	0.6960546875	1.0500390625	9.3351171875	9.4221276731535		
609	16090	1497291618	0.7033203125	1.0533203125	9.343046875	9.4310953030952		
610	16090	1497291619	0.9096875	1.0526953125	9.3240234375	9.4301879604043		
611	16090	1497291620	1.0071484375	1.0817578125	9.3419921875	9.4597543430448		
612	16090	1497291621	1.108125	1.0496875	9.2928125	9.4185535869983		
613	16090	1497291622	1.3081296410891	1.0618425123762	9.3439820544554	9.4955851384008		
614	16090	1497291623	1.3648756377551	1.0633370535714	9.3370934311224	9.4969658581237		
615	16090	1497291624	1.4204296875	1.0587109375	9.3104296875	9.4785723304395		
616	16090	1497291625	1.4502734375	1.0726953125	9.3858203125	9.5583437975198		
617	16090	1497291626	1.4795612373737	1.06640625	9.3937026515152	9.5699507418947		
618	16090	1497291627	1.4853515625	1.07140625	9.3682421875	9.5461005088213		
619	16090	1497291628	1.08734375	1.0608984375	9.3660546875	9.4941482792909		
620	16090	1497291629	0.38210227272727	1.0743371212121	9.3827730429293	9.4529635361521		
621	16090	1497291630	0.5332421875	1.0762109375	9.3709765625	9.4502175300383		
622	16090	1497291631	0.721015625	1.0683203125	9.4042578125	9.4958084939225		
623	16090	1497291632	0.53592976485149	1.0659808168317	9.3786741955446	9.4558154736687		
624	16090	1497291633	0.55160984848485	1.0759943181818	9.3751578282828	9.4563075923719		
625	16090	1497291634	0.53013392857143	1.0404177295918	9.3659119897959	9.4438397624442		
626	16090	1497291635	0.2346484375	1.05671875	9.3765234375	9.4501116703806		
627	16090	1497291636	0.182109375	1.0682421875	9.310546875	9.3813453328924		
628	16090	1497291637	0.504375	1.0910546875	9.41890625	9.5186874650698		
629	16090	1497291638	0.5145703125	1.0885546875	9.3871484375	9.474816089255		
630	16090	1497291639	0.51765784438776	1.0936304209184	9.3311543367347	9.4244367712181		
631	16090	1497291640	0.4540625	1.1836328125	9.3793359375	9.5127816096541		
632	16090	1497291641	0.3340234375	1.0674609375	9.4245703125	9.5053709304304		
633	16090	1497291642	0.37760416666667	1.0651436237374	9.3936237373737	9.4709820407327		
634	16090	1497291643	0.3516015625	1.0901953125	9.4225390625	9.4965831284594		
635	16090	1497291644	0.3225390625	1.072890625	9.40046875	9.4686091730162		
636	16090	1497291645	0.3091796875	1.06859375	9.366015625	9.433459641817		
637	16090	1497291646	0.340546875	1.066953125	9.373515625	9.4409952198517		
638	16090	1497291647	0.4822265625	1.0686328125	9.3567578125	9.4305143373678		
639	16090	1497291648	0.4923046875	1.0625	9.3659375	9.4394744997588		
640	16090	1497291649	0.50465593434343	1.0555555555556	9.3769333964646	9.4499835070279		
641	16090	1497291650	0.49984375	1.07140625	9.3597265625	9.4344274039425		
642	16090	1497291651	0.5009375	1.0548046875	9.3628515625	9.4357066256808		
643	16090	1497291652	0.5113671875	1.076171875	9.3596875	9.4355732017343		
644	16090	1497291653	0.55609375	1.055625	9.3654296875	9.4414754893791		
645	16090	1497291654	0.86356026785714	1.0623804209184	9.3535953443878	9.4546664797748		
646	16090	1497291655	1.0742976641414	1.0649463383838	9.3451704545455	9.4675134032544		
647	16090	1497291656	1.1275	1.0653515625	9.35453125	9.4829705958262		
648	16090	1497291657	0.48359375	1.0694140625	9.3640234375	9.4388229392948		
649	16090	1497291658	0.64303188131313	1.0626578282828	9.3524305555556	9.4376513334707		
650	16090	1497291659	0.46708694306931	1.0695003094059	9.3565129950495	9.4412123451289	s	s
651	16090	1497291660	0.54391571969697	1.4417613636364	9.4365924873737	9.6190835510493		
652	16090	1497291661	0.92566522277228	4.1852181311881	9.1275525990099	10.377409345647		
653	16090	1497291662	1.530579229798	2.4149700126263	8.2942313762626	8.9869976313674		
654	16090	1497291663	2.1230859375	1.7034765625	9.3962890625	9.8911735343046		
655	16090	1497291664	2.4408933080808	1.8915325126263	8.8596906565657	9.5834851231833		
656	16090	1497291665	2.416171875	3.5901953125	7.9669921875	9.3940851936074		
657	16090	1497291666	1.0100170173267	1.2867806311881	9.4357209158416	9.6399822984354		
658	16090	1497291667	0.9459375	1.324296875	9.1916796875	9.4253747310432		
659	16090	1497291668	0.82504734848485	1.1939315025253	9.584990530303	9.7684292978631		
660	16090	1497291669	0.78045280612245	0.82023278061224	9.2283561862245	9.3362667850052		
661	16090	1497291670	0.63632417929293	1.3270202020202	9.5785984848485	9.7528932949405		
662	16090	1497291671	0.9616796875	1.88328125	8.9970703125	9.3074180893374	s	l
663	16090	1497291672	0.91047190656566	0.86813446969697	9.5997869318182	9.7435297763721		
664	16090	1497291673	1.0731640625	0.756015625	9.405234375	9.5385930566156		
665	16090	1497291674	1.555078125	2.2319921875	8.89328125	9.3979058040625		
