n	Session	accelerometer.seconds.Unix	accelerometer.accx.Average	accelerometer.accy.Average	accelerometer.accz.Average	accelerometer.accx.Average-All	events.type	events.description
1	16102	1497344304	0.66512784090909	0.69602272727273	9.609375	9.6895516442703		
2	16102	1497344305	0.1099273989899	0.88403566919192	9.3802872474747	9.4260307261115		
3	16102	1497344306	0.28921875	0.8837109375	9.373125	9.4257350242999		
4	16102	1497344307	0.1110321969697	1.4377367424242	9.2340593434343	9.3501735265665		
5	16102	1497344308	0.61201862373737	1.6633522727273	9.0818339646465	9.3119861215801		
6	16102	1497344309	0.9691796875	0.7117578125	9.5098828125	9.6283779991692		
7	16102	1497344310	1.2541015625	0.9733203125	9.2371875	9.4464639345643		
8	16102	1497344311	1.176953125	0.8123046875	9.5903125	9.784395609982		
9	16102	1497344312	0.7090234375	1.034375	9.28515625	9.3967363979149		
10	16102	1497344313	0.5930078125	1.731171875	9.1765234375	9.3753231519758		
11	16102	1497344314	0.6506865530303	1.0312105429293	9.2999921085859	9.3925873598855		
12	16102	1497344315	0.57934816919192	1.1267755681818	9.2379261363636	9.330604681237		
13	16102	1497344316	0.602890625	0.6079296875	9.4140625	9.4643619018127		
14	16102	1497344317	1.0272648358586	0.22194602272727	9.4335542929293	9.4995400588251		
15	16102	1497344318	0.999765625	0.701640625	9.27078125	9.358848383614		
16	16102	1497344319	0.9141015625	0.6043359375	9.3851953125	9.4524262551494		
17	16102	1497344320	0.83297821969697	0.40980113636364	9.3872316919192	9.4334670568679		
18	16102	1497344321	0.77264835858586	0.35542929292929	9.4199810606061	9.4599621389099		
19	16102	1497344322	0.70152138157895	0.61533717105263	9.3638980263158	9.4130558465476		
20	16102	1497344323	0.55110012755102	0.60160235969388	9.3784677933673	9.4238337926412		
21	16102	1497344324	0.69598327020202	0.57698074494949	9.4003708964646	9.4447679579893		
22	16102	1497344325	0.63253348214286	0.47161989795918	9.3948899872449	9.4285638601304		
23	16102	1497344326	0.56038743622449	0.5601881377551	9.4034199617347	9.4369850889435		
24	16102	1497344327	0.5509375	0.57015625	9.39421875	9.427956653862		
25	16102	1497344328	0.56560083762887	0.50153028350515	9.4085454252577	9.4391281579652		
26	16102	1497344329	0.5708984375	0.422890625	9.420390625	9.4474274680954		
27	16102	1497344330	0.57222493489583	0.41109212239583	9.400390625	9.4269315228556		
28	16102	1497344331	0.508359375	0.389296875	9.4284375	9.4505238898138		
29	16102	1497344332	0.52529198232323	0.37559185606061	9.408538510101	9.4309039537031		
30	16102	1497344333	1.09125	0.868203125	9.78953125	9.9940618480289		
31	16102	1497344334	7.1145567602041	2.538743622449	4.2763073979592	9.933534011401		
32	16102	1497344335	6.9304846938776	2.6661352040816	5.3423549107143	10.793327617708		
33	16102	1497344336	4.6812109375	4.6583203125	6.796015625	11.511086108502		
34	16102	1497344337	5.07515625	3.1980078125	7.211015625	10.213432081198		
35	16102	1497344338	0.54015625	0.9673046875	9.308203125	9.4010312961137		
36	16102	1497344339	0.48252051767677	0.66808712121212	9.4018308080808	9.4383269848541		
37	16102	1497344340	0.4292578125	0.672421875	9.3818359375	9.4162597347828		
38	16102	1497344341	0.41062973484848	0.54715119949495	9.4030934343434	9.4283041582085		
39	16102	1497344342	0.3098828125	0.2341796875	9.4646875	9.4762316039655		
40	16102	1497344343	0.143671875	0.08296875	9.4613671875	9.4637224288644		
41	16102	1497344344	0.30176767676768	0.078874684343434	9.4698547979798	9.4762271516657		
42	16102	1497344345	0.27017557989691	0.069386275773196	9.4916639819588	9.4967893616825		
43	16102	1497344346	0.37602588383838	0.16291824494949	9.4567945075758	9.4659454671943		
44	16102	1497344347	0.31058673469388	0.15126753826531	9.4413265306122	9.4480710892923		
45	16102	1497344348	0.29093590561224	0.11906090561224	9.4631297831633	9.4686193748678		
46	16102	1497344349	0.22341358418367	0.031688456632653	9.4721380739796	9.4749564023261		
47	16102	1497344350	0.328125	0.033380681818182	9.4706833964646	9.4765891259109		
48	16102	1497344351	0.3284765625	0.0450390625	9.478515625	9.4844946548787		
49	16102	1497344352	0.22205219072165	0.024645618556701	9.4753543814433	9.4782362813263		
50	16102	1497344353	0.16970486111111	0.070825441919192	9.4741556186869	9.4762698101941		
51	16102	1497344354	0.2024609375	0.18734375	9.488203125	9.4930542443718		
52	16102	1497344355	0.18268623737374	0.11320233585859	9.498658459596	9.5014315088265		
53	16102	1497344356	0.19803503787879	0.033735795454545	9.4582938762626	9.4609734225118		
54	16102	1497344357	0.18004261363636	0.044231376262626	9.4703282828283	9.4725837144732		
55	16102	1497344358	0.268359375	0.057421875	9.4755859375	9.4801301887397		
56	16102	1497344359	0.17593907828283	0.063802083333333	9.4745896464646	9.4767967306703		
57	16102	1497344360	0.1751171875	0.2323828125	9.4404296875	9.4454158342016		
58	16102	1497344361	0.21677714646465	0.26692708333333	9.4471275252525	9.4538688264878		
59	16102	1497344362	0.24493781887755	0.18363360969388	9.4783163265306	9.4836092449076		
60	16102	1497344363	0.3972018494898	0.3089524872449	9.4457908163265	9.4611124792982		
61	16102	1497344364	0.3566796875	0.616953125	9.381953125	9.4108609012324		
62	16102	1497344365	0.28981983418367	0.55253507653061	9.4097975127551	9.4307842868507		
63	16102	1497344366	0.24734213917526	0.56999033505155	9.4237677190722	9.4444551407683		
64	16102	1497344367	0.277578125	0.553125	9.4184375	9.4389249024389		
65	16102	1497344368	0.2179296875	0.5951171875	9.408359375	9.4299472576158		
66	16102	1497344369	0.25096649484536	0.50587951030928	9.4337145618557	9.4513516547856		
67	16102	1497344370	0.27383609693878	0.2991868622449	9.4384566326531	9.4480191003299		
68	16102	1497344371	0.213671875	0.296484375	9.459609375	9.4669293082026		
69	16102	1497344372	0.22068339646465	0.30504261363636	9.4434974747475	9.4512081580844		
70	16102	1497344373	0.3314453125	0.334140625	9.445	9.4578948814428		
71	16102	1497344374	0.363671875	0.28328125	9.435390625	9.4471599028017		
72	16102	1497344375	0.40944602272727	0.38375946969697	9.4408143939394	9.4578292403565		
73	16102	1497344376	0.34167729591837	0.36670918367347	9.4344308035714	9.4479434280181		
74	16102	1497344377	0.33903833762887	0.36134826030928	9.4352045747423	9.4484264821068		
75	16102	1497344378	0.38229955808081	0.38257575757576	9.4337121212121	9.4494819022256		
76	16102	1497344379	0.39054608585859	0.31372316919192	9.4471275252525	9.4605598515209		
77	16102	1497344380	0.2983710106383	0.36897440159574	9.4269448138298	9.4392526632178		
78	16102	1497344381	0.27551020408163	0.4362643494898	9.4470264668367	9.4615852327951		
79	16102	1497344382	0.310078125	0.415390625	9.4310546875	9.4454844053777		
80	16102	1497344383	0.34383138020833	0.35001627604167	9.4473063151042	9.4601818782763		
81	16102	1497344384	0.31309789540816	0.34873246173469	9.4393734056122	9.4511939794653		
82	16102	1497344385	0.28491950757576	0.44764046717172	9.4267676767677	9.4421081009563		
83	16102	1497344386	0.34008290816327	0.42099808673469	9.4343112244898	9.4501870613688		
84	16102	1497344387	0.47955197704082	0.46544164540816	9.4292490433673	9.4530726635536		
85	16102	1497344388	0.31016430412371	0.31306378865979	9.4428962628866	9.45395686455		
86	16102	1497344389	0.2629544005102	0.30098054846939	9.4543606505102	9.4630600863162		
87	16102	1497344390	0.308203125	0.3496875	9.4476953125	9.4593325830624		
88	16102	1497344391	0.36604324494949	0.36264993686869	9.4379734848485	9.4522751250033		
89	16102	1497344392	0.39783960459184	0.38002232142857	9.443678252551	9.4601250331202		
90	16102	1497344393	0.36193970959596	0.48741319444444	9.412720959596	9.432595343621		
91	16102	1497344394	0.39034880050505	0.3934264520202	9.4431029040404	9.4596810746729		
92	16102	1497344395	0.37627551020408	0.36631058673469	9.4400510204082	9.4548393419458		
93	16102	1497344396	0.3248291015625	0.4189453125	9.4199625651042	9.4350871646034		
94	16102	1497344397	0.30354324494949	0.44034090909091	9.4358033459596	9.4511336769109		
95	16102	1497344398	0.35046875	0.4593359375	9.42984375	9.4477342096571		
96	16102	1497344399	0.33773118622449	0.48054846938776	9.4414859693878	9.460244487349		
97	16102	1497344400	0.2341796875	0.6893359375	9.508828125	9.5399162537493		
98	16102	1497344401	0.2614453125	0.8334375	9.269609375	9.3139258577155		
99	16102	1497344402	0.41272095959596	1.2016256313131	9.3527462121212	9.4413577199642		
100	16102	1497344403	0.2492578125	1.331171875	9.267109375	9.373295118941		
101	16102	1497344404	0.409375	1.04328125	9.3379296875	9.4075999180162		
102	16102	1497344405	0.36004577020202	0.9240845959596	9.3787089646465	9.4324989744626		
103	16102	1497344406	0.35692866161616	0.95746527777778	9.3573626893939	9.4135481968096		
104	16102	1497344407	0.29667771464646	1.0113636363636	9.3512073863636	9.4107513614348		
105	16102	1497344408	0.27521306818182	0.99297664141414	9.3544428661616	9.4113389076236		
106	16102	1497344409	0.28762755102041	0.93841677295918	9.3690609056122	9.4206038315986		
107	16102	1497344410	0.29078125	0.886796875	9.375703125	9.4222451734657		
108	16102	1497344411	0.26212145618557	0.88655766752577	9.3771343427835	9.4227399006413		
109	16102	1497344412	0.24448292525773	0.88836984536082	9.3826514175258	9.428289595651		
110	16102	1497344413	0.25741390306122	0.8639987244898	9.3663903061224	9.409950581612		
111	16102	1497344414	0.18258698453608	0.88031572164948	9.3839803479381	9.4271673222601		
112	16102	1497344415	0.1774779040404	0.8526672979798	9.3812736742424	9.421827210972		
113	16102	1497344416	0.22151199494949	0.74984217171717	9.3955571338384	9.4291590691758		
114	16102	1497344417	0.3864453125	0.7187109375	9.4273046875	9.4672599007423		
115	16102	1497344418	0.26467803030303	0.78176294191919	9.3719223484848	9.4091420439267		
116	16102	1497344419	0.23540088383838	0.82879577020202	9.3757102272727	9.4154082315167		
117	16102	1497344420	0.21631855867347	0.80078125	9.4013073979592	9.4379907736671		
118	16102	1497344421	0.16548665364583	0.81404622395833	9.3807779947917	9.418142634561		
119	16102	1497344422	0.089604591836735	0.75589923469388	9.4040178571429	9.43556062351		
120	16102	1497344423	0.3643860479798	0.5965514520202	9.416627209596	9.4468245042343		
121	16102	1497344424	0.57306281887755	0.61340082908163	9.4364237882653	9.4872593095571		
122	16102	1497344425	0.2369921875	0.365625	9.4380078125	9.4535747744796		
123	16102	1497344426	0.45754942602041	0.45455994897959	9.4376594387755	9.4667088258498		
124	16102	1497344427	0.3643359375	0.66859375	9.4055078125	9.4388914870784		
125	16102	1497344428	0.5045703125	0.7587109375	9.448671875	9.4964690196862		
126	16102	1497344429	0.424375	0.5662890625	9.358984375	9.3982928083007		
127	16102	1497344430	0.2654296875	0.42078125	9.4535546875	9.4749390492798		
128	16102	1497344431	0.299375	0.5788671875	9.46140625	9.4907340326847		
129	16102	1497344432	0.5491796875	0.8399609375	9.3416015625	9.4002618436061		
130	16102	1497344433	0.67313762626263	0.39737215909091	9.4635416666667	9.5073452544237		
131	16102	1497344434	0.8169921875	0.88640625	9.2885546875	9.3848373854053		
132	16102	1497344435	1.367858270202	0.88746843434343	9.7101878156566	9.892379773295		
133	16102	1497344436	1.7294428661616	1.2463304924242	9.4318970959596	9.7499168685892		
134	16102	1497344437	3.4415234375	1.995234375	8.84140625	10.219930914166		
135	16102	1497344438	2.4178125	2.5593359375	8.9095703125	9.9731097685341		
136	16102	1497344439	0.493125	4.7112109375	7.9015625	9.2723010461597		
137	16102	1497344440	1.804375	2.527421875	8.43296875	9.17996543554		
138	16102	1497344441	3.3073046875	1.113125	8.865859375	9.5827356456936		
139	16102	1497344442	2.2521484375	1.1685546875	9.138359375	9.5895882759523		
140	16102	1497344443	0.56234056122449	1.2890625	9.3193957270408	9.4404311250493		
141	16102	1497344444	0.7447265625	1.2828125	9.3194140625	9.4984451857499		
142	16102	1497344445	0.61571269132653	1.3546316964286	9.30859375	9.4656631451986		
143	16102	1497344446	0.38667929292929	1.3330965909091	9.1681265782828	9.2772164511404	s	e
144	16102	1497344447	0.31648516414141	1.3675426136364	9.2898516414141	9.3998624134516		
145	16102	1497344448	0.33051658163265	1.3286431760204	9.3103077168367	9.4105430376982		
146	16102	1497344449	0.33384342783505	1.3273195876289	9.3002174613402	9.4004515859243		
147	16102	1497344450	0.33589722938144	1.3267557989691	9.3027142396907	9.4028813808128		
148	16102	1497344451	0.33617665816327	1.3284837372449	9.2977917729592	9.398270991974		
149	16102	1497344452	0.33645044191919	1.3278093434343	9.2909958964646	9.3914630206425		
150	16102	1497344453	0.3376953125	1.3261328125	9.30140625	9.4016072993061		
151	16102	1497344454	0.33484375	1.33171875	9.2924609375	9.3934606578318		
152	16102	1497344455	0.33783143939394	1.3276120580808	9.3019649621212	9.4023245391193		
153	16102	1497344456	0.33629993556701	1.3275612113402	9.2948211984536	9.3951937211288		
154	16102	1497344457	0.3376341540404	1.3260337752525	9.2977825126263	9.3979781186581		
155	16102	1497344458	0.2758203125	1.325859375	9.29890625	9.3976540137785		
156	16102	1497344459	0.2315234375	1.34078125	9.3153515625	9.4168985324027	s	d
157	16102	1497344460	0.293515625	1.2921875	9.311328125	9.4087816748627		
158	16102	1497344461	0.4466015625	1.2763671875	9.317109375	9.4162276363704		
159	16102	1497344462	0.6497265625	1.2958984375	9.3305078125	9.4432080031063		
160	16102	1497344463	0.6758984375	1.2906640625	9.3341015625	9.4476154225332		
161	16102	1497344464	0.6637109375	1.2948828125	9.343359375	9.4567177953354		
162	16102	1497344465	0.6519140625	1.2806640625	9.338046875	9.449251866136		
163	16102	1497344466	0.7902734375	1.2706640625	9.333203125	9.4535357219038		
164	16102	1497344467	0.7469140625	1.2758203125	9.3169921875	9.4346351563022		
165	16102	1497344468	0.63177614795918	1.3166852678571	9.3414381377551	9.4564793737033		
166	16102	1497344469	0.33720012626263	1.2775804924242	9.3188525883838	9.4148667786279		
167	16102	1497344470	0.14859375	1.30125	9.337578125	9.4305119539953		
168	16102	1497344471	0.171640625	1.310390625	9.4076953125	9.5039851338418		
169	16102	1497344472	0.20742984693878	1.3269690688776	9.2648278061224	9.3694340074493		
170	16102	1497344473	0.25414787371134	1.2913176546392	9.4018202319588	9.5082847933945		
171	16102	1497344474	0.6121484375	1.1873828125	9.34578125	9.4584671681645		
172	16102	1497344475	0.60100446428571	1.2547433035714	9.338528380102	9.4469812171632		
173	16102	1497344476	0.61796875	1.2768359375	9.2795703125	9.397671043361		
174	16102	1497344477	0.51807133838384	1.2588383838384	9.3620975378788	9.472965028358		
175	16102	1497344478	0.4307421875	1.24015625	9.3821875	9.4790033420056		
176	16102	1497344479	0.42779356060606	1.2754103535354	9.434264520202	9.5323297106631		
177	16102	1497344480	0.42239317602041	1.262037627551	9.4369818239796	9.5320105119758		
178	16102	1497344481	0.4436328125	1.2753125	9.4437890625	9.5415921898248		
179	16102	1497344482	0.50215657552083	1.2805582682292	9.426025390625	9.5276456369727		
180	16102	1497344483	0.5225	1.25671875	9.3084765625	9.4094558135784		
181	16102	1497344484	0.51211734693878	1.235690369898	9.3208306760204	9.417829955792		
182	16102	1497344485	0.5199609375	1.2401171875	9.295703125	9.3945422853108		
183	16102	1497344486	0.5076171875	1.2353515625	9.30671875	9.4037854357556		
184	16102	1497344487	0.52015625	1.2584765625	9.2827734375	9.3840137465341		
185	16102	1497344488	0.4951171875	1.2540234375	9.3291015625	9.4272200685115		
186	16102	1497344489	0.4940234375	1.2607421875	9.301953125	9.4011797566611		
187	16102	1497344490	0.4871484375	1.23546875	9.3052734375	9.4027899637761		
188	16102	1497344491	0.5022490530303	1.2845249368687	9.3214172979798	9.4253252228925		
189	16102	1497344492	0.4647265625	1.2515625	9.3208984375	9.4174040978282		
190	16102	1497344493	0.4766796875	1.22890625	9.2815625	9.3758459925477		
191	16102	1497344494	0.37602588383838	1.2609690656566	9.3077256944444	9.4026151546565		
192	16102	1497344495	0.1880078125	1.266875	9.2851171875	9.3748430956233		
193	16102	1497344496	0.1975390625	1.25125	9.2821484375	9.3700731298935		
194	16102	1497344497	0.20730744949495	1.2840909090909	9.3025962752525	9.3944444907304		
195	16102	1497344498	0.20419034090909	1.2513809974747	9.2726878156566	9.3602874460036		
196	16102	1497344499	0.19657512626263	1.2413589015152	9.3027935606061	9.3884349559574		
197	16102	1497344500	0.1459375	1.1898828125	9.296015625	9.3739883480259		
198	16102	1497344501	0.099140625	1.125078125	9.3573046875	9.4262701402054		
199	16102	1497344502	0.055516098484848	1.1099668560606	9.2977430555556	9.3646067992445		
200	16102	1497344503	0.070078125	1.0707421875	9.2824609375	9.3451794234449		
201	16102	1497344504	0.111328125	1.0687109375	9.29546875	9.3584603675403		
202	16102	1497344505	0.094474871134021	1.0508617912371	9.2939352448454	9.3546936728549		
203	16102	1497344506	0.089765625	1.036484375	9.3129296875	9.3717793747497		
204	16102	1497344507	0.1539453125	1.0407421875	9.2887109375	9.3489514215963		
205	16102	1497344508	0.1593359375	1.023671875	9.3275390625	9.3860263255355		
206	16102	1497344509	0.1526171875	1.01203125	9.35375	9.4103173528805		
207	16102	1497344510	0.1250390625	1.0783984375	9.36515625	9.4282916916825		
208	16102	1497344511	0.2761328125	1.125703125	9.338515625	9.4114111105847		
209	16102	1497344512	0.5070950255102	1.1874601403061	9.3267299107143	9.4169635964142		
210	16102	1497344513	0.5268359375	1.233828125	9.3116796875	9.4086725992237		
211	16102	1497344514	0.59953125	1.294140625	9.248046875	9.3583822444818		
212	16102	1497344515	0.6430859375	1.2776171875	9.2679296875	9.3787797782039		
213	16102	1497344516	0.69160554846939	1.2941645408163	9.3016581632653	9.4179386529804		
214	16102	1497344517	0.96180555555556	1.2787247474747	9.2984138257576	9.4365529103082		
215	16102	1497344518	1.1772806186869	1.284485479798	9.3071732954545	9.4727125050388		
216	16102	1497344519	1.0916015625	1.30390625	9.31	9.4678114352869		
217	16102	1497344520	0.4762037627551	1.2787786989796	9.3160475127551	9.4187042803332		
218	16102	1497344521	0.3645703125	1.2729296875	9.3123046875	9.4066840624052		
219	16102	1497344522	0.62765625	1.28390625	9.314140625	9.4353049892519		
220	16102	1497344523	0.3214453125	1.2639453125	9.315	9.4094311597878	s	s
221	16102	1497344524	0.3583203125	1.273203125	9.31625	9.4143888179002		
222	16102	1497344525	0.3200390625	1.2562890625	9.2991015625	9.3896859893893		
223	16102	1497344526	0.32094381313131	1.2587989267677	9.3222064393939	9.4126052873775		
224	16102	1497344527	0.39255798969072	1.2384020618557	9.3266349871134	9.4198174679719		
225	16102	1497344528	0.34921875	1.2448046875	9.320703125	9.4100465362145		
226	16102	1497344529	0.350234375	1.2475390625	9.3210546875	9.4107893418156		
227	16102	1497344530	0.34848484848485	1.2461726641414	9.3163273358586	9.4058578239132		
228	16102	1497344531	0.3501953125	1.2439453125	9.32265625	9.4118706325253		
229	16102	1497344532	0.35	1.244765625	9.3119140625	9.4013650085417		
230	16102	1497344533	0.3481640625	1.243046875	9.3219921875	9.4110380998353		
231	16102	1497344534	0.3505078125	1.2459375	9.3161328125	9.4057054853112		
232	16102	1497344535	0.3471875	1.2457421875	9.318046875	9.4074493586033		
233	16102	1497344536	0.348828125	1.2466796875	9.3155078125	9.4051253241279		
234	16102	1497344537	0.34849330357143	1.2487643494898	9.3170041454082	9.406868153412		
235	16102	1497344538	0.349140625	1.2471484375	9.3191015625	9.4087429381071		
236	16102	1497344539	0.351484375	1.2487109375	9.3228515625	9.412763067883		
237	16102	1497344540	0.3467578125	1.2430859375	9.31796875	9.4070188302519		
238	16102	1497344541	0.346875	1.2425390625	9.3130859375	9.4021669585302		
239	16102	1497344542	0.3568359375	1.2515234375	9.3115625	9.4059935446726	s	d
240	16102	1497344543	0.336640625	1.2201171875	9.331640625	9.4186756665168		
241	16102	1497344544	0.28221649484536	1.2238643685567	9.3235341494845	9.4082808527609		
242	16102	1497344545	0.44247159090909	1.1979166666667	9.3582702020202	9.4476089409215		
243	16102	1497344546	0.74341066919192	1.1835148358586	9.3946101641414	9.4992322954387		
244	16102	1497344547	0.85298295454545	1.1906565656566	9.3897964015152	9.5060094927167		
245	16102	1497344548	0.983515625	1.177421875	9.380859375	9.5077974262018		
246	16102	1497344549	0.96970663265306	1.1688058035714	9.3569435586735	9.4818102943263		
247	16102	1497344550	0.92538265306122	1.1575255102041	9.3737244897959	9.4917671106745		
248	16102	1497344551	0.84651199494949	1.1287484217172	9.3551530934343	9.4622516718209		
249	16102	1497344552	0.65109375	1.1825390625	9.3693359375	9.4674634033366		
250	16102	1497344553	0.4988952020202	1.1935763888889	9.3806818181818	9.4705211234946		
251	16102	1497344554	0.36984375	1.165625	9.346171875	9.4271275787545		
252	16102	1497344555	0.2738671875	1.17859375	9.348671875	9.4278525087339		
253	16102	1497344556	0.2184375	1.2030859375	9.423828125	9.5039593441256		
254	16102	1497344557	0.1762890625	1.2076953125	9.4470703125	9.5267646039576		
255	16102	1497344558	0.14859693877551	1.2047193877551	9.4147799744898	9.4941012484579		
256	16102	1497344559	0.1362890625	1.194921875	9.42703125	9.5047877983373		
257	16102	1497344560	0.1368359375	1.19953125	9.4343359375	9.5130274236157		
258	16102	1497344561	0.1558984375	1.205625	9.4380859375	9.5182617294929		
259	16102	1497344562	0.1715625	1.2044140625	9.4547265625	9.5345636023703		
260	16102	1497344563	0.21500157828283	1.1977193813131	9.3841934974747	9.4643330998562		
261	16102	1497344564	0.2122265625	1.2054296875	9.3699609375	9.4507728621449		
262	16102	1497344565	0.2045703125	1.1640234375	9.313984375	9.3902469193358		
263	16102	1497344566	0.1968359375	1.1796875	9.314140625	9.3921806895906		
264	16102	1497344567	0.17057291666667	1.2645991161616	9.3184580176768	9.4075247491027		
265	16102	1497344568	0.1601171875	1.4224609375	9.306953125	9.4184110407774		
266	16102	1497344569	0.14658301767677	1.5174794823232	9.360045770202	9.4860872470259		
267	16102	1497344570	0.1625	1.52375	9.238984375	9.3676662811191		
268	16102	1497344571	0.1487890625	1.5299609375	9.2992578125	9.4274215707735		
269	16102	1497344572	0.13552295918367	1.5224011479592	9.2755899234694	9.4042510913705		
270	16102	1497344573	0.1792578125	1.5575	9.3316796875	9.4660477094932		
271	16102	1497344574	0.1553515625	1.56546875	9.3080859375	9.4456924931352		
272	16102	1497344575	0.16796875	1.525	9.2736328125	9.4040304914197		
273	16102	1497344576	0.14098011363636	1.5568970959596	9.2880366161616	9.4208524719531		
274	16102	1497344577	0.14457070707071	1.588226010101	9.2521306818182	9.3915446482088		
275	16102	1497344578	0.14397321428571	1.5311702806122	9.3241788903061	9.4539571387061		
276	16102	1497344579	0.161640625	1.6223046875	9.318984375	9.4660773199283		
277	16102	1497344580	0.1453515625	1.5305859375	9.29421875	9.4240469440625		
278	16102	1497344581	0.3305078125	1.448671875	9.298359375	9.4206236871756		
279	16102	1497344582	0.4205078125	1.295	9.2692578125	9.3727068096009		
280	16102	1497344583	0.32370580808081	1.2253393308081	9.3078440656566	9.3957700699188		
281	16102	1497344584	0.6254296875	1.19015625	9.242890625	9.3473482061804		
282	16102	1497344585	0.61220503826531	1.195631377551	9.220703125	9.3223311189792		
283	16102	1497344586	0.6341796875	1.1908203125	9.237421875	9.3390157531448		
284	16102	1497344587	0.62640625	1.2090625	9.251953125	9.3542565061979		
285	16102	1497344588	0.5763671875	1.1740625	9.2298046875	9.3456817744238		
286	16102	1497344589	0.64405776515152	1.1254734848485	9.2622711489899	9.3568236022479		
287	16102	1497344590	0.83664772727273	1.0913036616162	9.2902856691919	9.3945356407583		
288	16102	1497344591	1.1871484375	1.099921875	9.2648828125	9.4071389868815		
289	16102	1497344592	1.16609375	1.1116796875	9.2935546875	9.4337396124105		
290	16102	1497344593	1.2673828125	1.124375	9.2991015625	9.4574432608237		
291	16102	1497344594	1.268515625	1.133359375	9.2915234375	9.447078513001		
292	16102	1497344595	1.1969140625	1.12546875	9.328515625	9.4731145295655		
293	16102	1497344596	1.09765625	1.140625	9.3155859375	9.449922564723		
294	16102	1497344597	1.0321180555556	1.1260258838384	9.3217724116162	9.4477856414449		
295	16102	1497344598	1.0569993622449	1.1516262755102	9.3130181760204	9.4449839175809		
296	16102	1497344599	1.0531881313131	1.1385732323232	9.3014914772727	9.431169057299		
297	16102	1497344600	0.9099609375	1.12734375	9.320625	9.4364157247497		
298	16102	1497344601	0.639765625	1.117265625	9.34640625	9.4364137636537		
299	16102	1497344602	1.1113671875	1.1425390625	9.32140625	9.4681291815474		
300	16102	1497344603	0.26803188131313	1.1238557449495	9.3406723484848	9.4125132413613	s	s
301	16102	1497344604	0.2928515625	1.119140625	9.3479296875	9.4241000934791		
302	16102	1497344605	0.2708203125	1.0998828125	9.343125	9.4122695780479		
303	16102	1497344606	0.5321484375	1.139375	9.3584765625	9.4746741454895		
304	16102	1497344607	0.5616796875	1.4551953125	9.3030859375	9.4839861435655		
305	16102	1497344608	0.22484375	1.475859375	9.271015625	9.3928635655308		
306	16102	1497344609	0.1955859375	1.4799609375	9.276015625	9.3963118262855		
307	16102	1497344610	0.243125	1.482421875	9.2751171875	9.396097528322		
308	16102	1497344611	0.237734375	1.4853515625	9.2808984375	9.4021162791642		
309	16102	1497344612	0.235859375	1.479296875	9.27296875	9.3932624563496		
310	16102	1497344613	0.2405078125	1.4823828125	9.275390625	9.3963590721272		
311	16102	1497344614	0.23574420103093	1.4879590850515	9.2785115979381	9.4001232438684		
312	16102	1497344615	0.2370703125	1.4830078125	9.2732421875	9.3941585816635		
313	16102	1497344616	0.24092487373737	1.4848879419192	9.2722143308081	9.3935293069461		
314	16102	1497344617	0.24021464646465	1.4862689393939	9.2763573232323	9.3978232886818		
315	16102	1497344618	0.24013573232323	1.4854797979798	9.2747395833333	9.3961067134453		
316	16102	1497344619	0.241484375	1.48671875	9.2748828125	9.3965063224473		
317	16102	1497344620	0.240234375	1.4854113520408	9.282884247449	9.4041376681363		
318	16102	1497344621	0.24167455808081	1.4819286616162	9.270202020202	9.391101405272		
319	16102	1497344622	0.2398828125	1.482421875	9.2742578125	9.3951482540851		
320	16102	1497344623	0.24526515151515	1.4856770833333	9.2738320707071	9.3954212812558		
321	16102	1497344624	0.23879419191919	1.4766019570707	9.2702809343434	9.3902854197834		
322	16102	1497344625	0.24277935606061	1.4858743686869	9.2696496212121	9.3912479107291		
323	16102	1497344626	0.23515625	1.4873046875	9.278203125	9.399712949427		
324	16102	1497344627	0.239140625	1.4782421875	9.26828125	9.3886265531852		
325	16102	1497344628	0.2449609375	1.487578125	9.268671875	9.3906957724407		
326	16102	1497344629	0.24546875	1.4859375	9.26921875	9.3908667460112		
327	16102	1497344630	0.24046875	1.4806640625	9.2685546875	9.389260446527		
328	16102	1497344631	0.26700599747475	1.4702493686869	9.2743055555556	9.3954178521789	s	d
329	16102	1497344632	0.228125	1.4377734375	9.270625	9.3877015436469		
330	16102	1497344633	0.072837752525253	1.4626341540404	9.2906407828283	9.4072061853735		
331	16102	1497344634	0.3004296875	1.44109375	9.3028125	9.4191676145172		
332	16102	1497344635	0.4083984375	1.44171875	9.2973046875	9.4186193800913		
333	16102	1497344636	0.82140625	1.4494921875	9.3221484375	9.4727424043445		
334	16102	1497344637	0.927578125	1.4584765625	9.3267578125	9.488332333974		
335	16102	1497344638	0.69831123737374	1.4157591540404	9.3210227272727	9.455991469364		
336	16102	1497344639	0.698046875	1.4341796875	9.3169921875	9.454713067667		
337	16102	1497344640	0.689765625	1.4103515625	9.3166015625	9.449931365662		
338	16102	1497344641	0.7278125	1.444453125	9.29703125	9.4379457146126		
339	16102	1497344642	0.74296875	1.405390625	9.2856640625	9.4220020897339		
340	16102	1497344643	0.65875	1.43578125	9.3226953125	9.4571663076329		
341	16102	1497344644	0.64176925505051	1.4350931186869	9.2996764520202	9.4333011268617		
342	16102	1497344645	0.5876341540404	1.4018308080808	9.2101483585859	9.3362875839968		
343	16102	1497344646	0.5369921875	1.4284765625	9.2070703125	9.3345444910946		
344	16102	1497344647	0.4439453125	1.39234375	9.176875	9.2946735204714		
345	16102	1497344648	0.389140625	1.4146875	9.192265625	9.3108352729703		
346	16102	1497344649	0.333125	1.4144921875	9.13671875	9.2563702162829		
347	16102	1497344650	0.404296875	1.4282633463542	9.1658935546875	9.2888844450077		
348	16102	1497344651	0.39328125	1.454609375	9.2777734375	9.4015651402176		
349	16102	1497344652	0.3701171875	1.44078125	9.262578125	9.3838204400596		
350	16102	1497344653	0.412265625	1.4432421875	9.251875	9.3750846384129		
351	16102	1497344654	0.4278125	1.4315234375	9.2668359375	9.3885481394219		
352	16102	1497344655	0.4343112244898	1.457350127551	9.2720424107143	9.3977437459991		
353	16102	1497344656	0.4722265625	1.4004296875	9.2786328125	9.3979487303154		
354	16102	1497344657	0.446875	1.34203125	9.3104296875	9.4185946944738		
355	16102	1497344658	0.4580859375	1.235625	9.3151953125	9.4102941287479		
356	16102	1497344659	0.7066015625	1.1769140625	9.3587890625	9.4643158390839		
357	16102	1497344660	0.69712752525253	1.2389914772727	9.4063289141414	9.5168458223977		
358	16102	1497344661	0.5822265625	1.2090625	9.483515625	9.5810231346966		
359	16102	1497344662	0.5708203125	1.2601953125	9.4782421875	9.5821623156004		
360	16102	1497344663	0.573515625	1.2471484375	9.4837890625	9.5873438987475		
361	16102	1497344664	0.56680082070707	1.2513020833333	9.4831912878788	9.5860390404898		
362	16102	1497344665	0.5746875	1.283046875	9.47109375	9.5768051852172		
363	16102	1497344666	0.5234375	1.3046875	9.483671875	9.5900438477113		
364	16102	1497344667	0.48066804846939	1.328762755102	9.4682716836735	9.5755215664106		
365	16102	1497344668	0.43501420454545	1.3274936868687	9.3555476641414	9.4619340978193		
366	16102	1497344669	0.4352509469697	1.3398042929293	9.3125	9.4204723193481		
367	16102	1497344670	0.42859375	1.3644921875	9.2945703125	9.4061884564807		
368	16102	1497344671	0.40953125	1.3834375	9.3235546875	9.4380997266872		
369	16102	1497344672	0.3985546875	1.4802734375	9.2878515625	9.4177945671106		
370	16102	1497344673	0.87831439393939	1.462279040404	9.2838541666667	9.4454277271857		
371	16102	1497344674	1.1074822809278	1.5458682345361	9.2168975515464	9.4134632452925		
372	16102	1497344675	1.2354910714286	1.621412627551	9.196946747449	9.4224282607393		
373	16102	1497344676	1.2619921875	1.5976171875	9.205	9.4290904832936		
374	16102	1497344677	1.1755078125	1.5423828125	9.2264453125	9.4300448100157		
375	16102	1497344678	0.87643494897959	1.4744499362245	9.2585698341837	9.418903598188		
376	16102	1497344679	0.72664141414141	1.4704466540404	9.217132260101	9.3643963931411		
377	16102	1497344680	0.7228125	1.4416015625	9.2138671875	9.355083202746		
378	16102	1497344681	0.73958333333333	1.4760101010101	9.2117266414141	9.3594945325717		
379	16102	1497344682	0.652890625	1.463515625	9.2351953125	9.374790375359		
380	16102	1497344683	0.6512451171875	1.4661865234375	9.2375081380208	9.3773665675303		
381	16102	1497344684	0.70428093112245	1.4828204719388	9.2456154336735	9.3931081446946		
382	16102	1497344685	0.917578125	1.4586328125	9.280078125	9.4447132439464		
383	16102	1497344686	0.95213857323232	1.4789693813131	9.260101010101	9.4346983083929		
384	16102	1497344687	0.94390625	1.4781640625	9.255703125	9.4253240678711		
385	16102	1497344688	1.0477734375	1.4647265625	9.2383203125	9.4179384665679		
386	16102	1497344689	1.055859375	1.487578125	9.241640625	9.4225662516881		
387	16102	1497344690	1.0356640625	1.4768359375	9.235234375	9.412839892458		
388	16102	1497344691	1.0288671875	1.4773046875	9.2512109375	9.425551888279		
389	16102	1497344692	0.99453125	1.4712890625	9.238671875	9.4091580197868		
390	16102	1497344693	1.2195391414141	1.4804292929293	9.2378472222222	9.4360478593949		
391	16102	1497344694	1.2151953125	1.4812890625	9.235	9.432818019521		
392	16102	1497344695	1.051875	1.4869921875	9.249375	9.4301815614574		
393	16102	1497344696	0.97341358418367	1.4839764030612	9.2443797831633	9.4313333457496		
394	16102	1497344697	0.40238360969388	1.4647241709184	9.2693718112245	9.3962606297156	s	s
395	16102	1497344698	0.39465082908163	1.4521683673469	9.2768654336735	9.4001673572836		
396	16102	1497344699	0.39968588917526	1.4469233247423	9.2810083762887	9.4017570729275		
397	16102	1497344700	0.3977734375	1.44125	9.2783203125	9.3981528346067		
398	16102	1497344701	0.396953125	1.441953125	9.2798046875	9.3996862168096		
399	16102	1497344702	0.39734375	1.4453515625	9.2825390625	9.402915570739		
400	16102	1497344703	0.39741161616162	1.4431029040404	9.2790009469697	9.3990397732303		
401	16102	1497344704	0.39909539473684	1.4461348684211	9.2804276315789	9.4009745902079		
402	16102	1497344705	0.399296875	1.4419921875	9.275390625	9.3953606543307		
403	16102	1497344706	0.3973046875	1.444140625	9.2751953125	9.3953896966012		
404	16102	1497344707	0.39775289948454	1.4422519329897	9.2786324097938	9.3985074792198		
405	16102	1497344708	0.3958984375	1.443359375	9.278359375	9.3983592887418		
406	16102	1497344709	0.39803890306122	1.4404496173469	9.2796954719388	9.3993722696951		
407	16102	1497344710	0.39437181122449	1.4390943877551	9.2844786352041	9.4037427622925		
408	16102	1497344711	0.3995422979798	1.4449179292929	9.2790798611111	9.3995451690229		
409	16102	1497344712	0.39962121212121	1.4445233585859	9.2790009469697	9.3994009554601		
410	16102	1497344713	0.39983258928571	1.4457509566327	9.2775829081633	9.3982077994037		
411	16102	1497344714	0.3987109375	1.443125	9.2773046875	9.3974578840393		
412	16102	1497344715	0.39906881313131	1.4431029040404	9.279908459596	9.3999976280229		
413	16102	1497344716	0.39891098484848	1.4444839015152	9.2797900883838	9.4000786263218		
414	16102	1497344717	0.3985546875	1.442578125	9.2806640625	9.4006102043076		
415	16102	1497344718	0.39883207070707	1.4422743055556	9.2773042929293	9.3972553753338		
416	16102	1497344719	0.399921875	1.444140625	9.278671875	9.3989430898046		
417	16102	1497344720	0.3982421875	1.4421875	9.2790625	9.3989825662543		
418	16102	1497344721	0.4005078125	1.4426171875	9.2805859375	9.4006813032103		
419	16102	1497344722	0.3975390625	1.4423828125	9.280625	9.4006032855729		
420	16102	1497344723	0.4012890625	1.439921875	9.280546875	9.4003111724646		
421	16102	1497344724	0.4030859375	1.44515625	9.2759375	9.3966266380402		
422	16102	1497344725	0.3997265625	1.4421875	9.2750390625	9.3951432915053		
423	16102	1497344726	0.3978515625	1.4358203125	9.2767578125	9.3957611633587		
424	16102	1497344727	0.3990234375	1.442109375	9.2800390625	9.4000153066815		
425	16102	1497344728	0.40140625	1.4423828125	9.27515625	9.3952672227257		
426	16102	1497344729	0.39989741161616	1.4422743055556	9.2799873737374	9.3999473951302		
427	16102	1497344730	0.4005859375	1.4439453125	9.27671875	9.397042996585		
428	16102	1497344731	0.2413330078125	1.4302978515625	9.2928873697917	9.4068295840088	s	d
429	16102	1497344732	0.268359375	1.3913671875	9.3062890625	9.4169823890461		
430	16102	1497344733	0.23505261479592	1.3785076530612	9.3133370535714	9.419703399881		
431	16102	1497344734	0.21528220663265	1.3641980229592	9.3111049107143	9.4143468754662		
432	16102	1497344735	0.2615625	1.3617578125	9.3265234375	9.4312116471819		
433	16102	1497344736	0.2937109375	1.3507421875	9.310078125	9.4143763709716		
434	16102	1497344737	0.3389453125	1.3686328125	9.31265625	9.4205447389098		
435	16102	1497344738	0.3028515625	1.36203125	9.328984375	9.4342897419341		
436	16102	1497344739	0.280234375	1.358203125	9.327421875	9.4316627700595		
437	16102	1497344740	0.2149609375	1.3615234375	9.32671875	9.429399686366		
438	16102	1497344741	0.2040625	1.3747265625	9.3253515625	9.4298157259646		
439	16102	1497344742	0.2143359375	1.351796875	9.3019921875	9.4032672375329		
440	16102	1497344743	0.2861328125	1.3708203125	9.308203125	9.4156023505162		
441	16102	1497344744	0.3040234375	1.384375	9.3105078125	9.4197727939544		
442	16102	1497344745	0.2803515625	1.3834375	9.29265625	9.4006912126709		
443	16102	1497344746	0.268515625	1.3631640625	9.275859375	9.3799974247617		
444	16102	1497344747	0.2834375	1.379140625	9.2484765625	9.3558029773969		
445	16102	1497344748	0.2875390625	1.3761328125	9.2464453125	9.3534096664664		
446	16102	1497344749	0.32362085459184	1.3657525510204	9.2299505739796	9.3367677149978		
447	16102	1497344750	0.359609375	1.38015625	9.2361328125	9.3461179071722		
448	16102	1497344751	0.40711805555556	1.3757496843434	9.213896780303	9.32557548734		
449	16102	1497344752	0.44765625	1.36921875	9.263515625	9.37537496478		
450	16102	1497344753	0.4573828125	1.4042578125	9.300546875	9.4183137250052		
451	16102	1497344754	0.44317815721649	1.4515947164948	9.252818943299	9.3775833622062		
452	16102	1497344755	0.4363671875	1.52234375	9.2791796875	9.4153758873406		
453	16102	1497344756	0.42570153061224	1.5290178571429	9.2565369897959	9.3928321848498		
454	16102	1497344757	0.4379296875	1.523125	9.2396484375	9.3759806228815		
455	16102	1497344758	0.43894974226804	1.5142960695876	9.2803640463918	9.4149367099355		
456	16102	1497344759	0.43861607142857	1.4750876913265	9.2763472576531	9.4047808617905		
457	16102	1497344760	0.41890625	1.422578125	9.279609375	9.398778949276		
458	16102	1497344761	0.43	1.404375	9.2582421875	9.3761448902446		
459	16102	1497344762	0.47453125	1.3479296875	9.289453125	9.4003010431534		
460	16102	1497344763	0.5022265625	1.3445703125	9.2931640625	9.4046846807543		
461	16102	1497344764	0.530390625	1.369375	9.3302734375	9.4475114948784		
462	16102	1497344765	0.5419921875	1.3574609375	9.358671875	9.4738961594164		
463	16102	1497344766	0.5415234375	1.3719921875	9.35328125	9.4706354294097		
464	16102	1497344767	0.519140625	1.393125	9.392734375	9.5132423363093		
465	16102	1497344768	0.51901830808081	1.3622948232323	9.4096038510101	9.5244660910706		
466	16102	1497344769	1.0908801020408	1.3957270408163	9.3537547831633	9.5240417262381		
467	16102	1497344770	1.2252734375	1.4007421875	9.2905078125	9.4766228502792		
468	16102	1497344771	1.2629024621212	1.3688841540404	9.2883128156566	9.4761152557532		
469	16102	1497344772	1.081484375	1.3144921875	9.30390625	9.4616075112754		
470	16102	1497344773	1.0946575126263	1.299439709596	9.2750946969697	9.4356742117892		
471	16102	1497344774	1.201783459596	1.2485400883838	9.2679924242424	9.4300176669879		
472	16102	1497344775	1.0617503156566	1.2780539772727	9.2892203282828	9.4396410820804		
473	16102	1497344776	0.8033984375	1.3392578125	9.31734375	9.449333575802		
474	16102	1497344777	0.766328125	1.3684765625	9.2753515625	9.4081630380508		
475	16102	1497344778	0.87328125	1.3823828125	9.2665234375	9.4119572035243		
476	16102	1497344779	0.95740131578947	1.3926398026316	9.2806743421053	9.4341077389603		
477	16102	1497344780	0.92873086734694	1.3738839285714	9.2879464285714	9.4375314253036		
478	16102	1497344781	1.0793606505102	1.3256935586735	9.2895408163265	9.447609618148		
479	16102	1497344782	1.2008203125	1.30421875	9.2871875	9.4557894885105		
480	16102	1497344783	1.2030855429293	1.3075284090909	9.2873263888889	9.4564553387164		
481	16102	1497344784	1.2187898596939	1.3013791454082	9.2893016581633	9.4597617870022		
482	16102	1497344785	1.0295533459596	1.3055160984848	9.3113557449495	9.4610436985535		
483	16102	1497344786	0.934375	1.27203125	9.2876953125	9.4221161717523		
484	16102	1497344787	0.960625	1.2861328125	9.276640625	9.4153923552626		
485	16102	1497344788	0.8884765625	1.2993359375	9.2949609375	9.4287045031585		
486	16102	1497344789	0.715546875	1.2929296875	9.307109375	9.4259111303985		
487	16102	1497344790	1.1394921875	1.3043359375	9.2887109375	9.4493459470716		
488	16102	1497344791	0.46171875	1.274609375	9.3174609375	9.4225368891352	s	s
489	16102	1497344792	0.42191445707071	1.2402541035354	9.3192866161616	9.4160207013588		
490	16102	1497344793	0.385859375	1.2565234375	9.3184765625	9.4108698234768		
491	16102	1497344794	0.3868359375	1.2553515625	9.3213671875	9.4135906051504		
492	16102	1497344795	0.3893359375	1.257265625	9.3201953125	9.4127550452728		
493	16102	1497344796	0.3908984375	1.2549609375	9.3234765625	9.4157578846346		
494	16102	1497344797	0.39209980867347	1.2553411989796	9.3195153061224	9.4119002942955		
495	16102	1497344798	0.39109375	1.2560546875	9.31671875	9.4091909701394		
496	16102	1497344799	0.39137468434343	1.2573784722222	9.319641729798	9.4122751300269		
497	16102	1497344800	0.38948074494949	1.2556029040404	9.317353219697	9.4096919774259		
498	16102	1497344801	0.39153251262626	1.256194760101	9.3194839015152	9.4119563673189		
499	16102	1497344802	0.3904296875	1.25703125	9.3191015625	9.4116599087378		
500	16102	1497344803	0.39640625	1.255859375	9.31765625	9.4103250863635		
501	16102	1497344804	0.3922119140625	1.25439453125	9.3163248697917	9.4086257733364		
502	16102	1497344805	0.3922265625	1.255859375	9.3141015625	9.4066152842297		
503	16102	1497344806	0.39528093434343	1.2550110479798	9.313446969697	9.4059936429064		
504	16102	1497344807	0.3920703125	1.25546875	9.3129296875	9.4054008665848		
505	16102	1497344808	0.39259785353535	1.2536300505051	9.3216145833333	9.4137851743813		
506	16102	1497344809	0.391640625	1.255078125	9.3134765625	9.4058702316425		
507	16102	1497344810	0.3925390625	1.255078125	9.3158984375	9.4083218022826		
508	16102	1497344811	0.39409722222222	1.2546164772727	9.3132891414141	9.4057368202889		
509	16102	1497344812	0.39417613636364	1.2568260732323	9.3153409090909	9.4082189722251		
510	16102	1497344813	0.3944140625	1.2270703125	9.313828125	9.4044998551311		
511	16102	1497344814	0.55433238636364	1.1970486111111	9.3441840277778	9.4520180866039		
512	16102	1497344815	0.38944128787879	1.1606691919192	9.3433554292929	9.423281102006		
513	16102	1497344816	0.38620580808081	1.1577493686869	9.344420770202	9.4238710738372		
514	16102	1497344817	0.199453125	1.1246484375	9.34921875	9.4200161479627	s	d
515	16102	1497344818	0.2343359375	1.1284375	9.3626171875	9.4371338439515		
516	16102	1497344819	0.1815625	1.1143359375	9.37421875	9.443601904938		
517	16102	1497344820	0.28288424744898	1.0969387755102	9.3478156887755	9.4177785752359		
518	16102	1497344821	0.328828125	1.09390625	9.384140625	9.4548293857088		
519	16102	1497344822	0.3208203125	1.12796875	9.3738671875	9.4484663040812		
520	16102	1497344823	0.31078125	1.11734375	9.378984375	9.4522158520223		
521	16102	1497344824	0.335390625	1.118828125	9.328828125	9.4029513283005		
522	16102	1497344825	0.3192578125	1.0984765625	9.3662109375	9.436955029991		
523	16102	1497344826	0.31344696969697	1.1036537247475	9.3605192550505	9.4313341181159		
524	16102	1497344827	0.30512152777778	1.1117818813131	9.3608743686869	9.4324529090304		
525	16102	1497344828	0.319453125	1.1079296875	9.356875	9.4288743625109		
526	16102	1497344829	0.3490625	1.140234375	9.3369921875	9.4136619344657		
527	16102	1497344830	0.339765625	1.1559765625	9.348125	9.4264156607058		
528	16102	1497344831	0.301953125	1.170703125	9.355703125	9.4342385909117		
529	16102	1497344832	0.2456640625	1.275390625	9.3105078125	9.4020966305159		
530	16102	1497344833	0.2134375	1.3206640625	9.33046875	9.4271516640592		
531	16102	1497344834	0.1404296875	1.4385546875	9.268984375	9.3819850305087		
532	16102	1497344835	0.11777935606061	1.5040246212121	9.2320470328283	9.3559953638346		
533	16102	1497344836	0.13794191919192	1.4997238005051	9.1707702020202	9.294717853955		
534	16102	1497344837	0.1832421875	1.4856640625	9.1778125	9.3000793620766		
535	16102	1497344838	0.2526953125	1.4760546875	9.16046875	9.2832277513152		
536	16102	1497344839	0.3265234375	1.4509765625	9.1623828125	9.283671519804		
537	16102	1497344840	0.38699494949495	1.4633443813131	9.2328361742424	9.3571765069185		
538	16102	1497344841	0.41694286616162	1.4347380050505	9.279908459596	9.4011515033595		
539	16102	1497344842	0.4516796875	1.4293359375	9.2612890625	9.3833660227397		
540	16102	1497344843	0.459765625	1.4119140625	9.320703125	9.4394600285914		
541	16102	1497344844	0.46902619949495	1.3780381944444	9.3648200757576	9.4784957446788		
542	16102	1497344845	0.4716015625	1.3735546875	9.3580078125	9.4715181856473		
543	16102	1497344846	0.47088434278351	1.3524081829897	9.374637564433	9.4844526904343		
544	16102	1497344847	0.44992897727273	1.3501815025253	9.3774463383838	9.4859820078905		
545	16102	1497344848	0.42271205357143	1.3453443877551	9.3732461734694	9.4800928424944		
546	16102	1497344849	0.39871369949495	1.3474589646465	9.3747632575758	9.4809276236827		
547	16102	1497344850	0.36241319444444	1.3273753156566	9.4095643939394	9.5113302403707		
548	16102	1497344851	0.3191015625	1.331640625	9.3175	9.4188671781963		
549	16102	1497344852	0.32500789141414	1.2610085227273	9.3255997474747	9.4172879193104		
550	16102	1497344853	0.3327734375	1.183671875	9.33421875	9.4162162233518		
551	16102	1497344854	0.34019886363636	1.1540009469697	9.3620975378788	9.440941018707		
552	16102	1497344855	0.33700284090909	1.1487136994949	9.3605587121212	9.4393482718494		
553	16102	1497344856	0.319140625	1.1550390625	9.338515625	9.4159105430862		
554	16102	1497344857	0.328046875	1.1710546875	9.33625	9.4163160765093		
555	16102	1497344858	0.3291796875	1.145703125	9.345546875	9.4223305729232		
556	16102	1497344859	0.3225220959596	1.147766729798	9.3286379419192	9.4054509988886		
557	16102	1497344860	0.32678345959596	1.1525015782828	9.3302951388889	9.4082776929863		
558	16102	1497344861	0.32265625	1.170859375	9.36625	9.4457569980337		
559	16102	1497344862	0.3185546875	1.16390625	9.3207421875	9.3991739709004		
560	16102	1497344863	0.3269140625	1.13765625	9.351640625	9.4273041188771		
561	16102	1497344864	0.3208203125	1.1605859375	9.349140625	9.4276177881433		
562	16102	1497344865	0.3131640625	1.1615234375	9.3595703125	9.4386066406635		
563	16102	1497344866	0.31125	1.1743359375	9.3509375	9.4314489152014		
564	16102	1497344867	0.326015625	1.160625	9.3026171875	9.382635913837		
565	16102	1497344868	0.3251953125	1.157421875	9.34359375	9.4229866993207		
566	16102	1497344869	0.3314453125	1.1376171875	9.298046875	9.3773827679205		
567	16102	1497344870	0.34489425505051	1.1424794823232	9.3723958333333	9.4525452433809		
568	16102	1497344871	0.34072066326531	1.1471619897959	9.3779496173469	9.4589455835617		
569	16102	1497344872	0.36036142676768	1.1653251262626	9.3504182449495	9.4387073293413		
570	16102	1497344873	0.323671875	1.16515625	9.3497265625	9.4312871753087		
571	16102	1497344874	0.3303515625	1.1937109375	9.3638671875	9.4487799595472		
572	16102	1497344875	0.3464205994898	1.1932397959184	9.3541135204082	9.44483222128		
573	16102	1497344876	0.3371875	1.208984375	9.301640625	9.3903780239763		
574	16102	1497344877	0.3430078125	1.193203125	9.3158203125	9.4030081459095		
575	16102	1497344878	0.37693339646465	1.1796085858586	9.4516256313131	9.5394971671305		
576	16102	1497344879	0.370234375	1.2609765625	9.377890625	9.4763771585228		
577	16102	1497344880	0.59627525252525	1.3115135732323	9.1982323232323	9.317351831601		
578	16102	1497344881	0.7024609375	1.2396875	9.32890625	9.4435462848249		
579	16102	1497344882	0.7131865530303	1.2278251262626	9.3590198863636	9.4722442647874		
580	16102	1497344883	0.79537563131313	1.2263257575758	9.3340830176768	9.460294167736		
581	16102	1497344884	0.95316485969388	1.1843510841837	9.3137755102041	9.4511916114397		
582	16102	1497344885	0.922734375	1.163046875	9.3417578125	9.4706771755069		
583	16102	1497344886	0.94125	1.10828125	9.3007421875	9.4267302587954		
584	16102	1497344887	0.9134375	1.141953125	9.337734375	9.4579101705708		
585	16102	1497344888	0.84871419270833	1.1103922526042	9.3693033854167	9.4782682589642		
586	16102	1497344889	0.8556640625	1.141796875	9.29875	9.4124763091892		
587	16102	1497344890	0.880546875	1.13171875	9.3976171875	9.511725208342		
588	16102	1497344891	0.9891796875	1.1398828125	9.3509375	9.4769348580248		
589	16102	1497344892	0.9944921875	0.99875	9.3065625	9.4252938428507		
590	16102	1497344893	0.99739583333333	1.0035116792929	9.4305555555556	9.5557559276879		
591	16102	1497344894	1.0681818181818	1.0905539772727	9.3302162247475	9.4635107752862		
592	16102	1497344895	1.0929129464286	1.1994180484694	9.335299744898	9.4797978655663		
593	16102	1497344896	1.0315261994949	1.1502130681818	9.2912720959596	9.4227009387891		
594	16102	1497344897	0.9741015625	1.1669140625	9.3528125	9.4808692520799		
595	16102	1497344898	0.90952493686869	1.1350220959596	9.3629655934343	9.4798372003301		
596	16102	1497344899	0.884140625	1.1745703125	9.332890625	9.4566595088759		
597	16102	1497344900	0.9077734375	1.156640625	9.281796875	9.4059988070497		
598	16102	1497344901	0.8526171875	1.1615234375	9.362109375	9.4815439572518		
599	16102	1497344902	0.815703125	1.17390625	9.3212890625	9.4385379201792		
600	16102	1497344903	0.7907421875	1.165859375	9.3048828125	9.4162255715449		
601	16102	1497344904	0.84611742424242	1.1700599747475	9.2985716540404	9.416168729212		
602	16102	1497344905	1.0433203125	1.17171875	9.3091796875	9.4435695451801		
603	16102	1497344906	0.4033984375	1.1626171875	9.33578125	9.4288812247615		
604	16102	1497344907	0.2503125	1.1384375	9.338046875	9.414524597934	s	s
605	16102	1497344908	0.2180078125	1.1457421875	9.3420703125	9.4160513177223		
606	16102	1497344909	0.19116709183673	1.1540178571429	9.3445073341837	9.4179048471013		
607	16102	1497344910	0.18402777777778	1.1501736111111	9.344420770202	9.417144691846		
608	16102	1497344911	0.18703125	1.148515625	9.3469921875	9.4195695154104		
609	16102	1497344912	0.1925	1.153359375	9.346328125	9.4195968064793		
610	16102	1497344913	0.18726325757576	1.1527777777778	9.3420138888889	9.4150633008821		
611	16102	1497344914	0.18859375	1.1498828125	9.3401953125	9.412978829333		
612	16102	1497344915	0.188125	1.1499609375	9.34359375	9.4163393108449		
613	16102	1497344916	0.19234375	1.1512109375	9.34484375	9.4178146941205		
614	16102	1497344917	0.1859375	1.1490625	9.3431640625	9.4159173265002		
615	16102	1497344918	0.186015625	1.14765625	9.342421875	9.4148377773677		
616	16102	1497344919	0.19014362373737	1.1541982323232	9.3484059343434	9.4216082779131		
617	16102	1497344920	0.18454071969697	1.1451625631313	9.3398832070707	9.4121262340668		
618	16102	1497344921	0.1875390625	1.1525390625	9.3381640625	9.4112708022522		
619	16102	1497344922	0.19171875	1.155234375	9.3459375	9.4194000720673		
620	16102	1497344923	0.1815625	1.1450390625	9.3384765625	9.4105606703372		
621	16102	1497344924	0.18556701030928	1.1485583118557	9.3389577963918	9.4114611801526		
622	16102	1497344925	0.180625	1.1477734375	9.3436328125	9.4160587674145		
623	16102	1497344926	0.18544619845361	1.1488804768041	9.3360180412371	9.4086700649226		
624	16102	1497344927	0.1879296875	1.148984375	9.3389453125	9.4115809275668		
625	16102	1497344928	0.19235321969697	1.1510811237374	9.3370028409091	9.4100108475666		
626	16102	1497344929	0.19746492346939	1.1578045280612	9.3419563137755	9.4159061875139		
627	16102	1497344930	0.19168244949495	1.1529750631313	9.3418955176768	9.415184308876		
628	16102	1497344931	0.19116950757576	1.1506470959596	9.3409090909091	9.4137406214175		
629	16102	1497344932	0.188046875	1.1491015625	9.33515625	9.407923406347		
630	16102	1497344933	0.1905859375	1.14921875	9.340859375	9.4136632286154		
631	16102	1497344934	0.188046875	1.14796875	9.3423828125	9.4148222482756		
632	16102	1497344935	0.16976243622449	1.1420599489796	9.334622130102	9.4062567338703		
633	16102	1497344936	0.223671875	1.133203125	9.3460546875	9.4190780285605	s	d
634	16102	1497344937	0.2537109375	1.12421875	9.3598828125	9.4329099545323		
635	16102	1497344938	0.291171875	1.1121875	9.3536328125	9.4248414934586		
636	16102	1497344939	0.3755078125	1.125859375	9.3840625	9.4646528104663		
637	16102	1497344940	0.459140625	1.129140625	9.3809375	9.4690746096435		
638	16102	1497344941	0.64457070707071	1.0760732323232	9.3979640151515	9.4903598694081		
639	16102	1497344942	0.4661328125	1.0933984375	9.3940234375	9.4760581621609		
640	16102	1497344943	0.37093592171717	1.0964725378788	9.4035274621212	9.4790305434845		
641	16102	1497344944	0.34915561868687	1.1147806186869	9.3375946969697	9.417844571259		
642	16102	1497344945	0.3636328125	1.0998828125	9.331328125	9.4107165338302		
643	16102	1497344946	0.40143623737374	1.0986426767677	9.3541666666667	9.4331981605487		
644	16102	1497344947	0.43359375	1.1047585227273	9.3644255050505	9.4452515736143		
645	16102	1497344948	0.3227734375	1.1230078125	9.331484375	9.4115325277476		
646	16102	1497344949	0.3055859375	1.1455078125	9.37578125	9.4561281919339		
647	16102	1497344950	0.35984375	1.132421875	9.3391796875	9.4234114179498		
648	16102	1497344951	0.3627734375	1.15359375	9.324296875	9.4112689821057		
649	16102	1497344952	0.37614425505051	1.1309974747475	9.3275726010101	9.4139607831583		
650	16102	1497344953	0.429375	1.1180078125	9.3341015625	9.4262069007881		
651	16102	1497344954	0.3328515625	1.14046875	9.344296875	9.4261300231827		
652	16102	1497344955	0.3344140625	1.1344921875	9.3372265625	9.4160344839871		
653	16102	1497344956	0.3233984375	1.124375	9.3466796875	9.4223140668287		
654	16102	1497344957	0.65359375	1.1082421875	9.3378515625	9.4326459135014		
655	16102	1497344958	0.74463383838384	1.1738478535354	9.3420533459596	9.4484537710954		
656	16102	1497344959	0.73630839646465	1.1235400883838	9.3361347853535	9.4350053090894		
657	16102	1497344960	0.78714923469388	1.1322943239796	9.3439094387755	9.4473295835258		
658	16102	1497344961	0.7921875	1.132578125	9.3334375	9.4372342113786		
659	16102	1497344962	0.4615625	1.1326171875	9.3362890625	9.4200443277205		
660	16102	1497344963	0.3276171875	1.1466015625	9.33140625	9.4092249029402		
661	16102	1497344964	0.2951953125	1.131484375	9.3408984375	9.4172343430587		
662	16102	1497344965	0.2705078125	1.1245703125	9.336328125	9.4119841009078		
663	16102	1497344966	0.2665234375	1.1448828125	9.3193359375	9.3973832010764		
664	16102	1497344967	0.163359375	1.1278125	9.377734375	9.4518987345067		
665	16102	1497344968	0.1943359375	1.10421875	9.321875	9.3931060807744		
666	16102	1497344969	0.202421875	1.1371875	9.353125	9.4279092863959		
667	16102	1497344970	0.17984375	1.1121484375	9.317890625	9.3909893007065		
668	16102	1497344971	0.1947601010101	1.127288510101	9.3770517676768	9.4510170475752		
669	16102	1497344972	0.24980271464646	1.1515151515152	9.3725536616162	9.451602880201		
670	16102	1497344973	0.267890625	1.129921875	9.339921875	9.4202715357001		
671	16102	1497344974	0.29578125	1.1050390625	9.3359375	9.4213516413834		
672	16102	1497344975	0.3269921875	1.11953125	9.30046875	9.384102622195		
673	16102	1497344976	0.31828125	1.0903125	9.3741796875	9.455642989488		
674	16102	1497344977	0.3275390625	0.8205859375	9.4265234375	9.483549564706		
675	16102	1497344978	0.3018359375	0.6786328125	9.463671875	9.5015703726641		
676	16102	1497344979	0.27501578282828	0.67329545454545	9.4744318181818	9.5130363121143		
677	16102	1497344980	0.15005523989899	0.65550031565657	9.4511521464646	9.4776998403885		
678	16102	1497344981	0.10234375	0.6589453125	9.465390625	9.4904719089974		
679	16102	1497344982	0.12057557397959	0.650390625	9.3828125	9.4088463246849		
680	16102	1497344983	0.125078125	0.6740234375	9.3636328125	9.3916821329511		
681	16102	1497344984	0.11466224747475	0.59781407828283	9.413391729798	9.4352372692625		
682	16102	1497344985	0.1257421875	0.79140625	9.375078125	9.4125701517494		
683	16102	1497344986	0.1516796875	1.0216015625	9.347421875	9.4081536055709		
684	16102	1497344987	0.146953125	1.10515625	9.29703125	9.3666291443517		
685	16102	1497344988	0.260546875	1.1187109375	9.2380859375	9.3143738233853		
686	16102	1497344989	0.25824652777778	1.1363636363636	9.3151830808081	9.3893366839326		
687	16102	1497344990	0.2550390625	1.119921875	9.2958984375	9.3691780326523		
688	16102	1497344991	0.20958227040816	1.1033163265306	9.2895806760204	9.3586410598031		
689	16102	1497344992	0.1015625	1.1112085459184	9.3048469387755	9.3740519974475		
690	16102	1497344993	0.16931029040404	1.1044034090909	9.3012152777778	9.371651866778		
691	16102	1497344994	0.1677734375	1.0992578125	9.3278125	9.3954960544527		
692	16102	1497344995	0.17830650252525	1.0988794191919	9.3400804924242	9.4100881986688		
693	16102	1497344996	0.16617506377551	1.1026785714286	9.3349011479592	9.4043338418987		
694	16102	1497344997	0.169296875	1.1120703125	9.3191796875	9.389828176529		
695	16102	1497344998	0.390234375	1.136796875	9.3151171875	9.3990977069657		
696	16102	1497344999	0.32161458333333	1.1089409722222	9.2950994318182	9.3692723217946		
697	16102	1497345000	0.38399621212121	1.1581044823232	9.3630839646465	9.4520135463117		
698	16102	1497345001	0.31819993622449	1.1108099489796	9.3248166454082	9.3980850939441		
699	16102	1497345002	0.3241796875	1.1247265625	9.3048828125	9.3801237584538		
700	16102	1497345003	0.3723294005102	1.1270727040816	9.335618622449	9.4192233315031		
701	16102	1497345004	0.55584343112245	1.1138392857143	9.3132971938776	9.4004928086082		
702	16102	1497345005	0.68031881313131	1.1306029040404	9.3046875	9.4016236873283		
703	16102	1497345006	0.65206755050505	1.1528172348485	9.3206676136364	9.4185848457545		
704	16102	1497345007	0.593984375	1.1328515625	9.3183203125	9.4071825014167		
705	16102	1497345008	0.55127467105263	1.1248355263158	9.3120476973684	9.396670632778		
706	16102	1497345009	0.39342105263158	1.1416940789474	9.3117598684211	9.3926587532149		
707	16102	1497345010	0.30966996173469	1.1068239795918	9.3127790178571	9.3838020275564		
708	16102	1497345011	0.325927734375	1.1128743489583	9.31298828125	9.3860574035258		
709	16102	1497345012	0.31488486842105	1.109375	9.3170230263158	9.3886423616172		
710	16102	1497345013	0.2678740530303	1.1013652146465	9.3045296717172	9.3742604909159		
711	16102	1497345014	0.26631673177083	1.11572265625	9.3272298177083	9.3982124543527		
712	16102	1497345015	0.273125	1.11921875	9.3165625	9.3886323778197		
713	16102	1497345016	0.19610164141414	1.1281960227273	9.3070943813131	9.3789450367438		
714	16102	1497345017	0.15983737244898	1.138671875	9.3136559311224	9.3879144851668		
715	16102	1497345018	0.14640625	1.1343359375	9.3387890625	9.4105437129255		
716	16102	1497345019	0.1296484375	1.1335546875	9.309765625	9.3815021730469		
717	16102	1497345020	0.14953125	1.1256640625	9.318828125	9.3895765450826		
718	16102	1497345021	0.15226483585859	1.1311158459596	9.3212989267677	9.3937392091527		
719	16102	1497345022	0.1679296875	1.2564453125	9.29359375	9.3853090270555		
720	16102	1497345023	0.10787563131313	1.3847853535354	9.2541429924242	9.3592866022834		
721	16102	1497345024	0.2521484375	1.512890625	9.2289453125	9.3617989617143		
722	16102	1497345025	0.19460227272727	1.5160590277778	9.2455018939394	9.3722301625141		
723	16102	1497345026	0.2064788510101	1.5060369318182	9.2606139520202	9.386314764213		
724	16102	1497345027	0.25131536989796	1.5263472576531	9.2588887117347	9.3960816808012		
725	16102	1497345028	0.1576171875	1.53390625	9.2346484375	9.3650097492951		
726	16102	1497345029	0.10870422979798	1.5191366792929	9.2309422348485	9.3572466756872		
727	16102	1497345030	0.078671875	1.5600390625	9.242578125	9.3754695539146		
728	16102	1497345031	0.16094539141414	1.5811631944444	9.2329150883838	9.3712219804419		
729	16102	1497345032	0.127578125	1.5905859375	9.250859375	9.3890330450634		
730	16102	1497345033	0.3476953125	1.60296875	9.2677734375	9.4144371155294		
731	16102	1497345034	0.3066015625	1.534921875	9.2325	9.3692198598055		
732	16102	1497345035	0.129453125	1.366875	9.2995703125	9.4022670634849		
733	16102	1497345036	0.090322066326531	1.2411511479592	9.2794164540816	9.3647694283725		
734	16102	1497345037	0.15037089646465	1.0994712752525	9.3249684343434	9.3953487495137		
735	16102	1497345038	0.13166824494949	1.0910669191919	9.3403566919192	9.4072885930669		
736	16102	1497345039	0.1245703125	1.0917578125	9.3389453125	9.405947074538		
737	16102	1497345040	0.2161328125	1.09859375	9.3165234375	9.3897461171879		
738	16102	1497345041	0.24790877525253	1.0348800505051	9.3399621212121	9.4116484982236		
739	16102	1497345042	0.18921875	1.03203125	9.37515625	9.4402708853353		
740	16102	1497345043	0.1988671875	0.990078125	9.3412890625	9.4024222922596		
741	16102	1497345044	0.31578125	0.9930859375	9.31890625	9.3918377921643		
742	16102	1497345045	0.2908984375	0.95421875	9.3205859375	9.3840492721202		
743	16102	1497345046	0.37404336734694	1.1420998086735	9.3844866071429	9.485365649448		
744	16102	1497345047	0.39708227040816	0.98202327806122	9.4158163265306	9.4924463994707		
745	16102	1497345048	0.37705176767677	0.94101167929293	9.3785905934343	9.4523361775574		
746	16102	1497345049	0.44984375	1.01125	9.3471484375	9.4404442614196		
747	16102	1497345050	0.43706154336735	0.97265625	9.3816167091837	9.4670006438371		
748	16102	1497345051	0.4899779040404	1.0268702651515	9.3539299242424	9.4471630631483		
749	16102	1497345052	0.41123246173469	1.0754544005102	9.2957190688776	9.386160834059		
750	16102	1497345053	0.30851483585859	1.079071969697	9.2973484848485	9.3749886443741		
751	16102	1497345054	0.31553819444444	1.1175031565657	9.3480902777778	9.4237522224454		
752	16102	1497345055	0.363046875	1.1019140625	9.3517578125	9.4307129020954		
753	16102	1497345056	0.461953125	1.07625	9.35578125	9.4392583541757		
754	16102	1497345057	0.44629892676768	1.1137941919192	9.3550741792929	9.4344735617808		
755	16102	1497345058	0.35817920918367	1.117825255102	9.3010204081633	9.3790395960668		
756	16102	1497345059	0.3601953125	1.1342578125	9.3249609375	9.4055495702528		
757	16102	1497345060	0.31881313131313	1.1136758207071	9.2930476641414	9.3675274500979		
758	16102	1497345061	0.32425860969388	1.1428172831633	9.3149314413265	9.3926399108385		
759	16102	1497345062	0.34861288265306	1.0855787627551	9.3174824617347	9.3894269041704		
760	16102	1497345063	0.34028220663265	1.0989317602041	9.3173628826531	9.390225619761		
761	16102	1497345064	0.377890625	1.117109375	9.3291015625	9.4106878692358		
762	16102	1497345065	0.324296875	1.123515625	9.3218359375	9.3976012536059		
763	16102	1497345066	0.3327734375	1.1397265625	9.2940625	9.3729477226525		
764	16102	1497345067	0.3528125	1.1282421875	9.356015625	9.4351346145937		
765	16102	1497345068	0.62866709183673	1.1188616071429	9.3357382015306	9.4285016445029		
766	16102	1497345069	0.7208203125	1.1353125	9.3276953125	9.4276635095021		
767	16102	1497345070	0.71113478535354	1.1096511994949	9.3032275883838	9.3983129497598		
768	16102	1497345071	0.6902734375	1.134765625	9.28046875	9.3758523495115		
769	16102	1497345072	0.7288671875	1.140859375	9.3049609375	9.4038882533356		
770	16102	1497345073	0.85431281887755	1.1522640306122	9.2964365433673	9.4073848648412		
771	16102	1497345074	0.79171875	1.1455859375	9.28765625	9.3921024586949		
772	16102	1497345075	0.75864109848485	1.1349431818182	9.3034643308081	9.4035414290652		
773	16102	1497345076	0.7687890625	1.1346875	9.3077734375	9.4084942965789		
774	16102	1497345077	0.54020675505051	1.1343513257576	9.3138809974747	9.3993694189953		
775	16102	1497345078	0.84161931818182	1.1416114267677	9.302122790404	9.4099382332778		
776	16102	1497345079	0.46133207070707	1.1358506944444	9.3120659722222	9.4045797121748	s	s
777	16102	1497345080	0.6653125	1.2148046875	9.56109375	9.7248572261182		
778	16102	1497345081	7.4820075757576	2.649108270202	4.1556976010101	9.8490674262778		
779	16102	1497345082	2.476484375	1.502421875	8.2836328125	9.2876734197306		
780	16102	1497345083	1.304453125	0.996875	9.4096875	9.6177358867971		
781	16102	1497345084	1.71203125	1.593359375	9.0197265625	9.3708922212061	s	l
782	16102	1497345085	1.5452734375	0.937265625	9.525625	9.754967774803		
783	16102	1497345086	1.3915625	1.2065625	8.8402734375	9.1353410518208		
784	16102	1497345087	0.963515625	3.2315234375	8.8276171875	9.5782098370984		
785	16102	1497345088	0.9436328125	2.9340234375	8.8433984375	9.4521468152768		
