n	Session	accelerometer.seconds.Unix	accelerometer.accx.Average	accelerometer.accy.Average	accelerometer.accz.Average	accelerometer.accx.Average-All	events.type	events.description
1	16101	1497343911	0.86690848214286	1.9148995535714	9.4008091517857	9.7135716737824		
2	16101	1497343912	1.330859375	1.008046875	9.1819140625	9.3913962652384		
3	16101	1497343913	0.85389819587629	1.3242590206186	9.0911726804124	9.2751238804285		
4	16101	1497343914	0.56372316919192	0.90088383838384	9.4851641414141	9.5949364980609		
5	16101	1497343915	0.79154829545455	0.91232638888889	9.3891650883838	9.479925766966		
6	16101	1497343916	0.75546875	0.57171875	9.359296875	9.4172519672131		
7	16101	1497343917	1.18609375	1.618515625	9.238359375	9.4907396113058		
8	16101	1497343918	0.4421484375	1.208125	9.5713671875	9.7245093400131		
9	16101	1497343919	1.2387109375	0.855390625	9.010625	9.1692042699097		
10	16101	1497343920	0.9735546875	0.955078125	9.25296875	9.4166356921331		
11	16101	1497343921	0.74759311868687	1.4184422348485	9.7122395833333	9.8893871826063		
12	16101	1497343922	0.86154513888889	1.0518860479798	9.3908222853535	9.540953352384	s	e
13	16101	1497343923	1.741953125	1.168671875	9.537109375	9.9834436774527		
14	16101	1497343924	3.46125	1.81375	7.966171875	9.313444662562		
15	16101	1497343925	1.5334375	1.3848046875	9.45296875	9.8235407919646		
16	16101	1497343926	0.00047348484848485	1.0845170454545	9.3136047979798	9.3765847197684		
17	16101	1497343927	0.006218112244898	1.0513392857143	9.3319515306122	9.3912188183402		
18	16101	1497343928	0.034406565656566	1.182252209596	9.3143544823232	9.3926323389457		
19	16101	1497343929	0.14952480670103	1.3031169458763	9.2838273195876	9.3866890619878		
20	16101	1497343930	0.011965460526316	1.3970805921053	9.2617598684211	9.3667377050021		
21	16101	1497343931	0.0187890625	1.3887109375	9.25015625	9.3539633894151		
22	16101	1497343932	0.0292578125	1.3877734375	9.2503515625	9.353994515888		
23	16101	1497343933	0.049505739795918	1.3854432397959	9.2486049107143	9.3520050616538		
24	16101	1497343934	0.2498046875	1.3891796875	9.2538671875	9.3641842563775		
25	16101	1497343935	1.0158666237113	1.3971488402062	9.2532216494845	9.4165201502218	s	d
26	16101	1497343936	1.2329940025253	1.3927162247475	9.2593513257576	9.4475882611433		
27	16101	1497343937	1.35546875	1.3823828125	9.2601953125	9.4606940179309		
28	16101	1497343938	1.391171875	1.3874609375	9.2628125	9.4696449343308		
29	16101	1497343939	1.3067578125	1.3676171875	9.2473046875	9.4397142861377		
30	16101	1497343940	1.2270703125	1.3858984375	9.2456640625	9.4301135154419		
31	16101	1497343941	1.0096859056122	1.3975207270408	9.2698899872449	9.4321159703836		
32	16101	1497343942	0.5931640625	1.39390625	9.2509375	9.3753713260124		
33	16101	1497343943	0.45859375	1.36796875	9.3071875	9.4209988658768		
34	16101	1497343944	0.37484375	1.4005859375	9.337578125	9.4517501259132		
35	16101	1497343945	0.386640625	1.44515625	9.4625	9.5814971161734		
36	16101	1497343946	0.4794140625	1.41921875	9.460234375	9.5792580244862		
37	16101	1497343947	0.44092793367347	1.4245057397959	9.4787149234694	9.5969608415237		
38	16101	1497343948	0.6077178030303	1.4363557449495	9.412444760101	9.5427309031802		
39	16101	1497343949	0.695234375	1.4670703125	9.239921875	9.3829331788009		
40	16101	1497343950	0.7256640625	1.402890625	9.2857421875	9.4216873713138		
41	16101	1497343951	0.93150252525253	1.2111347853535	9.2778172348485	9.4044516560118		
42	16101	1497343952	1.0837850765306	1.1225685586735	9.263671875	9.3954575639219		
43	16101	1497343953	1.0562657828283	1.0934738005051	9.3029513888889	9.4276176651926		
44	16101	1497343954	1.060859375	1.201953125	9.264453125	9.4050264842731		
45	16101	1497343955	1.0157421875	1.3894921875	9.2646484375	9.4251567162817		
46	16101	1497343956	1.0378125	1.381171875	9.2602734375	9.4221324208333		
47	16101	1497343957	1.0446484375	1.4117578125	9.21421875	9.3831836032933		
48	16101	1497343958	1.0501953125	1.4673828125	9.143828125	9.3242849698473		
49	16101	1497343959	1.021015625	1.486171875	9.1778515625	9.3610986249262		
50	16101	1497343960	1.00234375	1.5422265625	9.13015625	9.321261950758		
51	16101	1497343961	0.96453125	1.57921875	9.11796875	9.307609065727		
52	16101	1497343962	0.92057291666667	1.5524384469697	9.146148989899	9.3252536370371		
53	16101	1497343963	0.8919921875	1.4794140625	9.1688671875	9.3320726973306		
54	16101	1497343964	0.8565735479798	1.4157196969697	9.1717171717172	9.3216185576708		
55	16101	1497343965	0.79711174242424	1.3046085858586	9.1528172348485	9.2823396029484		
56	16101	1497343966	0.6975	1.354296875	9.2003515625	9.3286831057721		
57	16101	1497343967	0.4688671875	1.353046875	9.2638671875	9.3767645164972		
58	16101	1497343968	0.187890625	1.354375	9.3321484375	9.4359239587169		
59	16101	1497343969	0.376875	1.3091015625	9.20796875	9.3255317797394		
60	16101	1497343970	0.4321484375	1.3719140625	9.2530859375	9.3728386458924		
61	16101	1497343971	0.417890625	1.361015625	9.3188671875	9.4292637757145		
62	16101	1497343972	0.281953125	1.3302734375	9.314296875	9.4157185007985		
63	16101	1497343973	0.28424873737374	1.3387389520202	9.2831833964646	9.3870768777408		
64	16101	1497343974	0.3664700255102	1.3236208545918	9.2169164540816	9.3227826867401		
65	16101	1497343975	0.7728515625	1.387109375	9.247421875	9.3860371968666		
66	16101	1497343976	0.2398828125	1.44046875	9.2496484375	9.3680257648606		
67	16101	1497343977	0.12180397727273	1.4395123106061	9.268860479798	9.383364568244		
68	16101	1497343978	0.1845703125	1.42921875	9.26859375	9.3829326461209		
69	16101	1497343979	0.3662109375	1.443359375	9.2075	9.3304661666571		
70	16101	1497343980	0.4305078125	1.40421875	9.2312890625	9.3500924871223		
71	16101	1497343981	0.28652545103093	1.4164787371134	9.1889900128866	9.3057736203404		
72	16101	1497343982	0.1163671875	1.3546484375	9.1718359375	9.2737792924634		
73	16101	1497343983	0.054375	1.38515625	9.277734375	9.3820073111329		
74	16101	1497343984	0.08015625	1.7053125	9.26	9.4176285420115		
75	16101	1497343985	0.11144770408163	1.8813376913265	9.2067522321429	9.3993315432695		
76	16101	1497343986	0.2605859375	1.89546875	9.2365625	9.4357682060453		
77	16101	1497343987	0.21354166666667	1.8852588383838	9.2062421085859	9.4018156032399		
78	16101	1497343988	0.3301953125	1.8025	9.172421875	9.3552242583483		
79	16101	1497343989	0.39520886479592	1.6721141581633	9.1898915816327	9.3515483392877		
80	16101	1497343990	0.353984375	1.678828125	9.1987109375	9.3597735915485		
81	16101	1497343991	0.356328125	1.6176171875	9.2021484375	9.3521957735673		
82	16101	1497343992	0.50749033505155	1.5935889175258	9.1698211984536	9.3239574545822		
83	16101	1497343993	0.56393494897959	1.5200892857143	9.2250876913265	9.3677306074292		
84	16101	1497343994	0.5680859375	1.489921875	9.246484375	9.3838588759794		
85	16101	1497343995	0.5523046875	1.4496484375	9.242578125	9.3726449917658		
86	16101	1497343996	0.61545138888889	1.4311079545455	9.2432528409091	9.3740825804082		
87	16101	1497343997	0.590390625	1.4121875	9.2598828125	9.3857568465139		
88	16101	1497343998	0.71918845663265	1.395846619898	9.2668207908163	9.4001818520147		
89	16101	1497343999	0.13648200757576	1.4112610479798	9.2632575757576	9.3721576957452		
90	16101	1497344000	0.10000797193878	1.4119897959184	9.2587691326531	9.3666494235837		
91	16101	1497344001	0.412890625	1.40234375	9.2569921875	9.3758257265627		
92	16101	1497344002	0.15515625	1.4096875	9.2613671875	9.3701592211178	s	s
93	16101	1497344003	0.217890625	1.4326953125	9.26109375	9.3768466973397		
94	16101	1497344004	0.133203125	1.42828125	9.2552734375	9.3658659274921		
95	16101	1497344005	0.13261521464646	1.4225852272727	9.2670059974747	9.3765649345816		
96	16101	1497344006	0.13301179846939	1.427734375	9.2637914540816	9.3741823911121		
97	16101	1497344007	0.13120167525773	1.4249758376289	9.2611146907216	9.3710849329691		
98	16101	1497344008	0.1321875	1.4219921875	9.2632421875	9.3728531230777		
99	16101	1497344009	0.11136798469388	1.4233498086735	9.2659040178571	9.375758887052		
100	16101	1497344010	0.10859375	1.420859375	9.2712890625	9.3802205376556		
101	16101	1497344011	0.088068181818182	1.4140625	9.2607323232323	9.3685512825988		
102	16101	1497344012	0.087771045918367	1.418606505102	9.2601642219388	9.3686686102837		
103	16101	1497344013	0.084674873737374	1.4135495580808	9.2687815656566	9.3763877890409		
104	16101	1497344014	0.085379464285714	1.4141820790816	9.260084502551	9.3678946380889		
105	16101	1497344015	0.19196428571429	1.4564333545918	9.2568160076531	9.3906612510257		
106	16101	1497344016	0.63265141752577	1.4269088273196	9.2615173969072	9.4065754833295		
107	16101	1497344017	0.5859765625	1.4546484375	9.214921875	9.3943164569356		
108	16101	1497344018	0.1492578125	1.5610546875	9.25671875	9.4008845341529		
109	16101	1497344019	0.67109375	2.371015625	9.46109375	9.8530507178329		
110	16101	1497344020	1.3249684343434	2.3806818181818	8.6325757575758	9.2330652837117		
111	16101	1497344021	1.0288825757576	2.4637784090909	8.8379498106061	9.3554807489787		
112	16101	1497344022	0.5323046875	2.586640625	8.925859375	9.324115726036		
113	16101	1497344023	0.24833170572917	2.7191569010417	8.8647867838542	9.2776715553989		
114	16101	1497344024	0.17522321428571	2.7944435586735	8.8358179209184	9.2691583071228		
115	16101	1497344025	0.1546556122449	2.7878268494898	8.8409598214286	9.2714796153518		
116	16101	1497344026	0.16968271683673	2.7690927933673	8.8536352040816	9.278179189995		
117	16101	1497344027	0.3004225127551	2.6711973852041	8.9027423469388	9.3027215759542	s	d
118	16101	1497344028	0.62630208333333	2.5850423177083	8.9745279947917	9.3656456956248		
119	16101	1497344029	0.84753787878788	2.4489030934343	9.0346433080808	9.3993243139522		
120	16101	1497344030	0.86797664141414	2.4179292929293	9.0460858585859	9.4043351616942		
121	16101	1497344031	0.8944140625	2.4267578125	9.037265625	9.4039792454807		
122	16101	1497344032	0.7600390625	2.336484375	9.07078125	9.3990933052638		
123	16101	1497344033	1.0166015625	2.30859375	9.074296875	9.4375747295954		
124	16101	1497344034	0.88679846938776	2.2797353316327	9.0819913903061	9.407146479401		
125	16101	1497344035	0.7512890625	2.2326953125	9.07609375	9.3779951752777		
126	16101	1497344036	0.65692761479592	2.2627551020408	9.0794802295918	9.3827526111399		
127	16101	1497344037	0.5121484375	2.227421875	9.078125	9.366131922727		
128	16101	1497344038	0.057370580808081	2.2038746843434	9.0510969065657	9.3164536748374		
129	16101	1497344039	0.0750390625	2.040859375	9.0969921875	9.3243999012716		
130	16101	1497344040	0.211640625	1.681953125	9.1774609375	9.3390017524284		
131	16101	1497344041	0.379609375	1.44609375	9.2515625	9.3748446777221		
132	16101	1497344042	0.25645727040816	1.5225605867347	9.2336575255102	9.3641954695234		
133	16101	1497344043	0.18640625	1.5495703125	9.2389453125	9.3717787557582		
134	16101	1497344044	0.1857421875	1.509921875	9.2429296875	9.3685341698801		
135	16101	1497344045	0.2003515625	1.4486328125	9.2417578125	9.3578933775911		
136	16101	1497344046	0.15707859848485	1.6110321969697	9.1940498737374	9.3366784558392		
137	16101	1497344047	0.168203125	1.8594921875	9.136015625	9.3273122808516		
138	16101	1497344048	0.136171875	2.041796875	9.0876171875	9.3160142169487		
139	16101	1497344049	0.39378156565657	1.9156013257576	9.125	9.3405316236872		
140	16101	1497344050	0.39879261363636	1.7508680555556	9.1515546085859	9.3327818159338		
141	16101	1497344051	0.424296875	1.920859375	9.14515625	9.3588415106654		
142	16101	1497344052	0.54359375	1.827109375	9.127421875	9.3261369564373		
143	16101	1497344053	0.56010841836735	1.7716039540816	9.1219706632653	9.3109190481433		
144	16101	1497344054	0.59927398989899	1.762389520202	9.1113873106061	9.3010783161574		
145	16101	1497344055	0.6105859375	1.8346484375	9.135390625	9.3385567285987		
146	16101	1497344056	0.63514046717172	1.8980034722222	9.0964330808081	9.3150467142454		
147	16101	1497344057	0.93039772727273	1.985716540404	9.047821969697	9.3115824764995		
148	16101	1497344058	0.88073979591837	2.0531329719388	9.0710698341837	9.3435331861751		
149	16101	1497344059	0.772265625	2.04015625	9.0396484375	9.3002235541318		
150	16101	1497344060	0.82559974747475	2.0349195075758	9.0445075757576	9.3083189218686		
151	16101	1497344061	1.0173216540404	2.0054056186869	9.0417455808081	9.3226295655936		
152	16101	1497344062	1.66421875	1.9842578125	8.9697265625	9.3454106938728		
153	16101	1497344063	1.134430239899	2.0310132575758	9.0192155934343	9.3240481624883		
154	16101	1497344064	0.56538036616162	1.9642913510101	9.0744554924242	9.3041851542326		
155	16101	1497344065	0.620546875	2.056015625	9.074609375	9.3270255569154		
156	16101	1497344066	0.86810427295918	1.9702646683673	9.0454400510204	9.3024377426852		
157	16101	1497344067	0.9705859375	1.964453125	9.02625	9.289623094868		
158	16101	1497344068	1.133125	2.0044921875	9.0464453125	9.3365280368148		
159	16101	1497344069	1.2308984375	2.0253515625	9.0030078125	9.3103410761928		
160	16101	1497344070	1.3212789948454	2.0223904639175	9.0029800257732	9.3222004941615		
161	16101	1497344071	1.491640625	2.0471484375	8.974375	9.3261161893631		
162	16101	1497344072	1.625	2.0897253787879	8.9627130681818	9.3461870998007		
163	16101	1497344073	1.5721275252525	2.0803740530303	8.9607796717172	9.3328517911124		
164	16101	1497344074	1.5811328125	2.0348828125	8.9738671875	9.336841849648		
165	16101	1497344075	1.6187890625	2.0498046875	8.968125	9.340949328723		
166	16101	1497344076	1.303984375	2.0515625	8.9958984375	9.3257694085939		
167	16101	1497344077	1.0323660714286	2.0163823341837	9.0293367346939	9.3099177364718		
168	16101	1497344078	1.2738715277778	1.9844933712121	9.0235558712121	9.3408227644477		
169	16101	1497344079	0.63578125	1.9708203125	9.0882421875	9.3251838262592	s	s
170	16101	1497344080	0.5898046875	1.894609375	9.0982421875	9.320066567258		
171	16101	1497344081	0.5753235479798	1.8424873737374	9.1122553661616	9.3165536046012		
172	16101	1497344082	0.58534564393939	1.9163904671717	9.0850299873737	9.3069940331539		
173	16101	1497344083	0.62336575255102	1.911790497449	9.0953443877551	9.3150745470434		
174	16101	1497344084	0.63169642857143	1.9015066964286	9.0955038265306	9.3136594106242		
175	16101	1497344085	0.6298324742268	1.9309761597938	9.0884342783505	9.3126816501878		
176	16101	1497344086	0.63452646683673	1.9290098852041	9.0873724489796	9.3115463546989		
177	16101	1497344087	0.6351243622449	1.9116709183673	9.0887276785714	9.3093512672685		
178	16101	1497344088	0.63910361842105	1.8976151315789	9.0969161184211	9.3147285084531		
179	16101	1497344089	0.6357925257732	1.9251369201031	9.0907699742268	9.314147486348		
180	16101	1497344090	0.63553503787879	1.9186000631313	9.0927635732323	9.3147374904825		
181	16101	1497344091	0.63890625	1.8892578125	9.0966015625	9.3127075225895		
182	16101	1497344092	0.63603414948454	1.9142638530928	9.089481314433	9.3106637027318		
183	16101	1497344093	0.63580197704082	1.9210379464286	9.0939492984694	9.3164238538304		
184	16101	1497344094	0.64885305851064	1.884142287234	9.0962433510638	9.3120071892099		
185	16101	1497344095	0.64579264322917	1.9012451171875	9.0972086588542	9.3162143834536		
186	16101	1497344096	0.64352448453608	1.9076192010309	9.0920989046392	9.3123812388703		
187	16101	1497344097	0.64926609848485	1.8738162878788	9.1076388888889	9.3211025465515		
188	16101	1497344098	0.65246456185567	1.8840608891753	9.0983005798969	9.3142571841844		
189	16101	1497344099	0.64682667525773	1.9050016108247	9.0964481314433	9.3163158285324		
190	16101	1497344100	0.64449139030612	1.8809789540816	9.0972576530612	9.3120973427372		
191	16101	1497344101	0.64702802835052	1.8637242268041	9.1018846649485	9.3132962508077		
192	16101	1497344102	0.51300740979381	1.8688385953608	9.1212548324742	9.3274750721478		
193	16101	1497344103	0.241171875	1.763125	9.2119140625	9.3832142664054		
194	16101	1497344104	0.4662109375	1.78578125	9.2168359375	9.4005338602757		
195	16101	1497344105	0.658125	1.75546875	9.2440625	9.4325277981799		
196	16101	1497344106	0.6093359375	1.723515625	9.245703125	9.4251654525121		
197	16101	1497344107	0.5446875	1.734296875	9.2422265625	9.4197706193537		
198	16101	1497344108	0.5457421875	1.6684375	9.2565234375	9.4269362432933	s	d
199	16101	1497344109	0.3755859375	1.520703125	9.281796875	9.418018065148		
200	16101	1497344110	0.176015625	1.54078125	9.274296875	9.4065360837849		
201	16101	1497344111	0.19953125	1.651875	9.1981640625	9.3510427057078		
202	16101	1497344112	0.70300662878788	1.7189078282828	9.1156092171717	9.3050321863071		
203	16101	1497344113	0.77036830357143	1.7128109056122	9.1153539540816	9.3077759808882		
204	16101	1497344114	0.7960546875	1.6964453125	9.1326171875	9.3238648639296		
205	16101	1497344115	0.8012890625	1.7130078125	9.126015625	9.3207683950146		
206	16101	1497344116	0.800703125	1.7310546875	9.1405859375	9.3381872325465		
207	16101	1497344117	0.808125	1.724375	9.13125	9.3287777278141		
208	16101	1497344118	0.81376262626263	1.7099116161616	9.1405066287879	9.3354494600646		
209	16101	1497344119	0.80847417091837	1.6801658163265	9.1279097576531	9.3174280392784		
210	16101	1497344120	0.8063671875	1.669765625	9.14765625	9.3343942815824		
211	16101	1497344121	0.826171875	1.5515234375	9.167578125	9.3370254865273		
212	16101	1497344122	0.85073390151515	1.137389520202	9.2668087121212	9.3764478881408		
213	16101	1497344123	0.8884765625	0.9683203125	9.297421875	9.3925831175138		
214	16101	1497344124	0.89484375	0.9379296875	9.2868359375	9.3794735448025		
215	16101	1497344125	0.911796875	0.9797265625	9.2815625	9.3795828794087		
216	16101	1497344126	0.91354955808081	0.99226641414141	9.3162089646465	9.4155916558981		
217	16101	1497344127	0.8523046875	1.266796875	9.213359375	9.3409531514276		
218	16101	1497344128	0.9815625	1.67953125	9.1231640625	9.3380300409658		
219	16101	1497344129	1.295859375	1.80234375	9.064453125	9.3352982644325		
220	16101	1497344130	0.8746875	1.7339453125	9.1080078125	9.3188662825347		
221	16101	1497344131	0.7263671875	1.6963671875	9.151015625	9.3362471148621		
222	16101	1497344132	0.41375	1.7068359375	9.18734375	9.3547836378479		
223	16101	1497344133	0.0959375	1.69265625	9.2051953125	9.3614762072453		
224	16101	1497344134	0.084462691326531	1.6688456632653	9.2603635204082	9.411766278391		
225	16101	1497344135	0.115546875	1.66109375	9.21	9.3612917001483		
226	16101	1497344136	0.13490372474747	1.6547111742424	9.2045849116162	9.3544891931249		
227	16101	1497344137	0.3721985479798	1.7452256944444	9.1792929292929	9.3563901402278		
228	16101	1497344138	0.58609375	1.6444921875	9.1730078125	9.3427393197627		
229	16101	1497344139	0.82248263888889	1.7688210227273	9.1112689393939	9.3222447544597		
230	16101	1497344140	0.59367108585859	1.9114188762626	9.1073232323232	9.3272862457325		
231	16101	1497344141	0.7081640625	1.94796875	9.1155078125	9.3523264310987		
232	16101	1497344142	0.70984375	1.9173046875	9.156796875	9.3872985202316		
233	16101	1497344143	0.86945950255102	1.9652822066327	9.1086176658163	9.3675272389036		
234	16101	1497344144	1.0668359375	1.983046875	9.0835546875	9.3623115350813		
235	16101	1497344145	1.090859375	1.910234375	9.048203125	9.3186621981972		
236	16101	1497344146	1.29875	1.97046875	9.062421875	9.3732583826008		
237	16101	1497344147	1.3505366161616	1.8772095959596	9.0765861742424	9.3720958590266		
238	16101	1497344148	1.4009088010204	1.876953125	9.0435666454082	9.3440205097898		
239	16101	1497344149	1.633046875	1.92421875	9.05984375	9.4072839370085		
240	16101	1497344150	1.80296875	1.9030859375	9.032734375	9.4070730309616		
241	16101	1497344151	1.8723046875	1.8719921875	9.0218359375	9.4035806430055		
242	16101	1497344152	1.9395703125	1.903359375	9.0003125	9.4035204834622		
243	16101	1497344153	1.714765625	1.8509765625	9.041015625	9.3923414731499		
244	16101	1497344154	1.3382654671717	1.8631628787879	9.0672348484848	9.3541916643644		
245	16101	1497344155	1.3793008207071	1.8264678030303	9.0671953914141	9.3538069432719		
246	16101	1497344156	1.33390625	1.804296875	9.1134765625	9.3870625539703		
247	16101	1497344157	1.3259765625	1.8379296875	9.0898828125	9.3688823884493		
248	16101	1497344158	1.1806739267677	1.836608270202	9.0785195707071	9.3412446184123		
249	16101	1497344159	0.92124368686869	1.7813289141414	9.1376262626263	9.3583038657068		
250	16101	1497344160	1.0266796875	1.80703125	9.1188671875	9.3537236407964		
251	16101	1497344161	1.1575255102041	1.787747130102	9.1025988520408	9.3513219969807		
252	16101	1497344162	1.156015625	1.802109375	9.1132421875	9.371962536537		
253	16101	1497344163	0.91422032828283	1.8058712121212	9.1220801767677	9.3472679999114		
254	16101	1497344164	0.8596875	1.779453125	9.1346484375	9.347818912765		
255	16101	1497344165	0.9122265625	1.7555859375	9.13796875	9.3515006616102		
256	16101	1497344166	0.71058238636364	1.7627840909091	9.1622080176768	9.358584932232		
257	16101	1497344167	0.816015625	1.753671875	9.1527734375	9.3567518009877		
258	16101	1497344168	0.8480859375	1.761640625	9.1434375	9.3506870898202		
259	16101	1497344169	0.847734375	1.735234375	9.1475	9.3498272525912		
260	16101	1497344170	0.8523828125	1.710703125	9.1516796875	9.349384818349		
261	16101	1497344171	0.8450390625	1.691484375	9.163671875	9.3570072734693		
262	16101	1497344172	0.84268465909091	1.6941682449495	9.1682844065657	9.3619150978512		
263	16101	1497344173	0.7896875	1.6223828125	9.18125	9.3573875906572		
264	16101	1497344174	0.8124609375	1.632734375	9.204140625	9.3840937393189		
265	16101	1497344175	0.7651953125	1.7081640625	9.149921875	9.3409632391679		
266	16101	1497344176	0.69160760309278	1.7911565721649	9.1720763530928	9.3755185197308		
267	16101	1497344177	0.69677241161616	1.7421875	9.134154040404	9.3270348539955		
268	16101	1497344178	0.67751736111111	1.7910748106061	9.1501341540404	9.3532887001509		
269	16101	1497344179	0.6886328125	1.7283203125	9.1531640625	9.3423625270107		
270	16101	1497344180	0.7350924744898	1.7919323979592	9.170559630102	9.3755102677727		
271	16101	1497344181	0.7464453125	1.795078125	9.1492578125	9.3557349589839		
272	16101	1497344182	0.7426171875	1.7519140625	9.1503515625	9.3504746463895		
273	16101	1497344183	0.7807421875	1.6255859375	9.194921875	9.3730975524083		
274	16101	1497344184	0.76890625	1.5566796875	9.2093359375	9.3728503005116		
275	16101	1497344185	0.72122130102041	1.4226323341837	9.245774872449	9.3865961921544		
276	16101	1497344186	0.72731983418367	1.3262914540816	9.2632732780612	9.3897800733813		
277	16101	1497344187	0.71283143939394	1.3922821969697	9.2419507575758	9.3748952078638		
278	16101	1497344188	0.7127734375	1.441875	9.2241015625	9.3661023700931		
279	16101	1497344189	0.71168718434343	1.5539378156566	9.1930634469697	9.3521504328488		
280	16101	1497344190	0.72209246134021	1.6444507087629	9.160881121134	9.3362537304036		
281	16101	1497344191	0.70616319444444	1.7011126893939	9.1518702651515	9.3374145740716		
282	16101	1497344192	0.71203125	1.7268359375	9.1433984375	9.3338477623854		
283	16101	1497344193	0.71405460858586	1.7627051767677	9.1340751262626	9.333851239649		
284	16101	1497344194	0.96425189393939	1.7408854166667	9.1104403409091	9.329009390122		
285	16101	1497344195	1.0542091836735	1.7781010841837	9.1016820790816	9.3360001863468		
286	16101	1497344196	1.071484375	1.7293359375	9.1083984375	9.333411741316		
287	16101	1497344197	1.2411221590909	1.7655855429293	9.079742739899	9.3342649710815		
288	16101	1497344198	1.2926171875	1.77359375	9.0811328125	9.3431383430299		
289	16101	1497344199	1.3294270833333	1.7507891414141	9.0831360479798	9.345759468265		
290	16101	1497344200	1.4607402146465	1.779908459596	9.0647490530303	9.3539286734927		
291	16101	1497344201	1.5648674242424	1.7829861111111	9.0505839646465	9.3585460851655		
292	16101	1497344202	0.9586256377551	1.7391980229592	9.1193000637755	9.3340194289104		
293	16101	1497344203	1.1854654947917	1.7940266927083	9.0828043619792	9.3340711994668		
294	16101	1497344204	1.3665561868687	1.795928030303	9.1333254419192	9.4190320654983		
295	16101	1497344205	0.86572758838384	1.7419507575758	9.1433080808081	9.3595723538332	s	s
296	16101	1497344206	0.90396148989899	1.6994160353535	9.2036773989899	9.413032192107		
297	16101	1497344207	0.80046875	2.0300390625	9.058984375	9.4001609121297		
298	16101	1497344208	1.2114453125	1.9740234375	10.0912109375	10.436865397705		
299	16101	1497344209	1.4216015625	2.1537109375	8.1412890625	8.6609796535988		
300	16101	1497344210	1.5878314393939	2.5689315025253	9.0157433712121	9.6012064220775		
301	16101	1497344211	0.74517697704082	1.1717952806122	9.2153619260204	9.4011645833065		
302	16101	1497344212	0.93746054292929	0.99865845959596	9.4052241161616	9.5478708147237		
303	16101	1497344213	0.77826052295918	0.98895886479592	9.197903380102	9.3370949396527	s	l
304	16101	1497344214	0.6878515625	0.8930078125	9.672578125	9.7826212988948		
305	16101	1497344215	0.51124043367347	0.947265625	9.5806361607143	9.6663399901894		
306	16101	1497344216	0.66302614795918	1.9071269132653	9.0778858418367	9.3748321979888		
307	16101	1497344217	0.69894255050505	1.3186158459596	9.5168087121212	9.6822354597376		
308	16101	1497344218	0.945546875	1.79078125	9.167578125	9.4619787648527		
309	16101	1497344219	0.918359375	2.456015625	8.893671875	9.3779006931217		
310	16101	1497344220	0.989296875	1.668359375	9.0483203125	9.3586166744155		
