n	Session	accelerometer.seconds.Unix	accelerometer.accx.Average	accelerometer.accy.Average	accelerometer.accz.Average	accelerometer.accx.Average-All	events.type	events.description
1	16096	1497303037	0.67598684210526	1.7086759868421	11.806743421053	12.000231293348		
2	16096	1497303038	0.76845503826531	1.7993861607143	9.2620774872449	9.5311110681378		
3	16096	1497303039	1.1663671875	1.740625	9.14125	9.4733064015806		
4	16096	1497303040	0.95165019132653	2.4722576530612	8.9198820153061	9.3902867644483		
5	16096	1497303041	1.2002055921053	3.1515213815789	8.9167351973684	9.6394341045142		
6	16096	1497303042	4.3999763257576	3.9260179924242	5.6437815656566	9.8472267039726		
7	16096	1497303043	10.181925455729	5.1563313802083	2.3555501302083	12.104785482821		
8	16096	1497303044	10.859609375	3.74765625	1.159375	11.873981030677		
9	16096	1497303045	10.3541796875	3.4118359375	1.2807421875	11.358878856865		
10	16096	1497303046	10.721141581633	3.8699378188776	1.2134486607143	11.737176029116		
11	16096	1497303047	10.840128580729	3.6404215494792	1.47265625	11.940303159258		
12	16096	1497303048	10.420939127604	3.7694905598958	1.1241455078125	11.485226891815		
13	16096	1497303049	10.060132575758	3.5247001262626	1.322877209596	11.034276864556		
14	16096	1497303050	9.7436328125	3.8484765625	1.2526171875	10.787057900652		
15	16096	1497303051	10.240175189394	4.342408459596	1.5041429924242	11.613559506943		
16	16096	1497303052	10.7945703125	4.35859375	1.567734375	12.385045427781		
17	16096	1497303053	11.47515625	4.4377734375	1.6835546875	12.940750891686		
18	16096	1497303054	10.9510546875	3.9862890625	1.2904296875	12.176011579975		
19	16096	1497303055	10.812578125	4.5516796875	1.3126953125	12.321827030403		
20	16096	1497303056	10.568917410714	5.2898596938776	1.4566326530612	12.568076897397		
21	16096	1497303057	10.394650829082	4.8054846938776	1.6812021683673	11.942514792147		
22	16096	1497303058	10.1308984375	4.203984375	1.3639453125	11.319280626958		
23	16096	1497303059	10.276672979798	3.9938446969697	1.1869081439394	11.396259299148		
24	16096	1497303060	10.666706123737	3.98046875	1.2625078914141	11.73429628409		
25	16096	1497303061	10.761393229167	4.0422770182292	1.2742106119792	11.871624567554		
26	16096	1497303062	10.581548002577	4.5574259020619	1.3224065721649	11.875585448854		
27	16096	1497303063	10.05236037234	4.934217087766	1.6228390957447	11.672230301545		
28	16096	1497303064	9.8715625	5.2853515625	1.4028125	11.556015224214		
29	16096	1497303065	9.4269893685567	5.1108650128866	1.5879510309278	11.265651186701		
30	16096	1497303066	8.5566007653061	3.7216597576531	1.389987244898	9.8038484200295		
31	16096	1497303067	9.2824983891753	4.9158344072165	2.245368878866	11.031032473916		
32	16096	1497303068	8.6979955808081	4.4260179924242	2.2589172979798	10.290383081454		
33	16096	1497303069	8.8475390625	3.1121875	2.7153125	10.603628615481		
34	16096	1497303070	7.3335546875	6.1828515625	4.2121875	11.556044452452		
35	16096	1497303071	8.6599609375	5.254140625	2.93953125	11.397378773314		
36	16096	1497303072	1.7966796875	2.66984375	7.341015625	8.4135075853005		
37	16096	1497303073	0.51053503787879	2.8924794823232	8.866240530303	9.3462214385284		
38	16096	1497303074	0.38024779040404	2.8083570075758	8.8493134469697	9.299100952787		
39	16096	1497303075	1.5495731314433	2.4283182989691	8.1153753221649	8.7918010244718		
40	16096	1497303076	10.401417525773	3.4952883376289	1.6497261597938	11.281045280566		
41	16096	1497303077	8.6746536726804	3.9851804123711	1.9074178479381	9.8318503166457		
42	16096	1497303078	8.7373766447368	4.1261924342105	1.6294407894737	9.8144451266891		
43	16096	1497303079	8.7446986607143	4.0720264668367	1.5710299744898	9.7766884737346		
44	16096	1497303080	8.6704001913265	4.1919642857143	1.5525350765306	9.7586101587535		
45	16096	1497303081	8.6884964923469	4.1834741709184	1.5500637755102	9.7689985860218		
46	16096	1497303082	8.6751953125	4.23125	1.540703125	9.7776751285573		
47	16096	1497303083	8.7200520833333	4.1073232323232	1.6017597853535	9.7735082117079		
48	16096	1497303084	8.690735479798	4.1965751262626	1.6139125631313	9.7866203087714		
49	16096	1497303085	8.6808215725806	4.2633148521505	1.5850974462366	9.8029749862274		
50	16096	1497303086	9.0690641108247	4.3798727448454	1.4586823453608	10.190692278175		
51	16096	1497303087	9.1952709441489	3.796210106383	0.78058510638298	10.03613042354		
52	16096	1497303088	8.4045046542553	4.1177692819149	1.378282912234	9.5530087021516		
53	16096	1497303089	9.4116654829545	5.0199307528409	1.4636896306818	10.957261857986		
54	16096	1497303090	8.69921875	4.3663820876289	1.348018685567	9.9771946591475		
55	16096	1497303091	9.2686050257732	3.7878141108247	1.5099871134021	10.277286070406		
56	16096	1497303092	9.7435855263158	4.08203125	1.6358141447368	10.83968037464		
57	16096	1497303093	10.22213807398	4.0811543367347	1.6641023596939	11.322424655152		
58	16096	1497303094	9.8835605053191	4.1387965425532	1.4271525930851	11.068535888564		
59	16096	1497303095	9.55171875	4.113125	1.653046875	10.75996544951		
60	16096	1497303096	9.2247983870968	4.1364247311828	1.4079301075269	10.420137981584		
61	16096	1497303097	8.701490752551	4.8687818877551	2.5186941964286	10.478945460816		
62	16096	1497303098	8.5703947368421	4.3999177631579	2.1497121710526	9.9347019184255		
63	16096	1497303099	8.5152264030612	4.6896922831633	1.3091916454082	9.9020887958224		
64	16096	1497303100	10.358618951613	4.3493783602151	1.5244455645161	11.466252427772		
65	16096	1497303101	9.0277138157895	4.2824835526316	1.3628289473684	10.283405390226		
66	16096	1497303102	8.5921954719388	4.3116230867347	1.595703125	9.8541758428149		
67	16096	1497303103	9.50265625	4.45390625	1.8515234375	10.895738644888		
68	16096	1497303104	9.6071484375	4.6524609375	1.5717578125	11.01337659555		
69	16096	1497303105	9.4116776315789	4.5778782894737	1.8307565789474	10.84094553933		
70	16096	1497303106	9.3029378255208	3.33251953125	1.4286702473958	10.057711320369		
71	16096	1497303107	9.7200377747253	4.1416552197802	1.7008499313187	10.855587486171		
72	16096	1497303108	8.975112757732	4.1916478737113	1.5313708118557	10.224003808916		
73	16096	1497303109	8.8878651494565	4.1486922554348	1.5703974184783	10.120598501476		
74	16096	1497303110	9.8539540816327	4.3786670918367	1.6263552295918	11.211355988318		
75	16096	1497303111	9.6208881578947	4.7259457236842	1.8361842105263	11.147804479661		
76	16096	1497303112	9.1190538194444	3.9074652777778	1.7295572916667	10.288166746456		
77	16096	1497303113	9.7435481039326	4.6411516853933	1.3200491573034	11.029347649679		
78	16096	1497303114	8.8484786184211	4.7805921052632	1.2347450657895	10.311368203596		
79	16096	1497303115	7.5889295212766	6.1577044547872	6.7203706781915	13.087969637382		
80	16096	1497303116	6.9242818813131	6.7073863636364	3.7272727272727	11.124260836067		
81	16096	1497303117	4.1774609375	6.1400390625	5.4833203125	9.7909341128179		
82	16096	1497303118	1.2187084441489	4.2160904255319	7.9607297207447	9.2015581851923		
83	16096	1497303119	1.1425579896907	5.1146101804124	7.436050257732	9.140891737724		
84	16096	1497303120	1.0779127038043	4.7960682744565	7.7595108695652	9.1931959434343		
85	16096	1497303121	1.5345458984375	4.4345703125	7.819091796875	9.1649417743264		
86	16096	1497303122	1.3500322164948	4.530887564433	7.8335615335052	9.169078735438		
87	16096	1497303123	1.200439453125	3.2205403645833	8.4447428385417	9.2942153853695		
88	16096	1497303124	1.2355981691919	3.8758285984848	8.2225378787879	9.1903504512707		
89	16096	1497303125	1.3786243556701	4.055412371134	8.1181942654639	9.2319374641006		
90	16096	1497303126	1.2461340206186	4.2166156572165	8.0943943298969	9.2232610573778		
91	16096	1497303127	1.2548421223958	3.4183349609375	8.4372965494792	9.2507579008694		
92	16096	1497303128	1.3050615026596	2.2711103723404	8.4454371675532	8.9003829485087		
93	16096	1497303129	1.6692845394737	1.0858141447368	9.2689144736842	9.6229389563186		
94	16096	1497303130	1.0189494680851	0.3617852393617	9.3656499335106	9.4283430484246		
95	16096	1497303131	1.0466358418367	0.5500637755102	9.4198820153061	9.5243668803859		
96	16096	1497303132	1.1032662898936	0.41572473404255	9.3562167553191	9.4767868682884		
97	16096	1497303133	1.033840013587	0.069675611413043	9.4223845108696	9.4857662515832		
98	16096	1497303134	0.98765120967742	0.10488071236559	9.4073000672043	9.4619858325606	s	e
99	16096	1497303135	0.98163231382979	0.11286569148936	9.412774268617	9.4677857390388		
100	16096	1497303136	0.9948580994898	0.044642857142857	9.4127072704082	9.4653007623224		
101	16096	1497303137	0.9921875	0.042163337628866	9.4155927835052	9.4678655565921		
102	16096	1497303138	1.002456507732	0.056419136597938	9.4048807989691	9.4586176765191		
103	16096	1497303139	0.99359697164948	0.044821198453608	9.4202641752577	9.4726612835093		
104	16096	1497303140	0.98334478021978	0.044986263736264	9.4159083104396	9.4673028126838		
105	16096	1497303141	0.9893798828125	0.0421142578125	9.424072265625	9.4760161522495		
106	16096	1497303142	0.9893860479798	0.037563131313131	9.4201783459596	9.4721211849439		
107	16096	1497303143	0.9894893685567	0.038136275773196	9.417243878866	9.4692092840108		
108	16096	1497303144	0.99230831185567	0.039022229381443	9.4226401417526	9.4748740037413		
109	16096	1497303145	0.98861019736842	0.038486842105263	9.4199835526316	9.4718414642998		
110	16096	1497303146	0.99134181701031	0.038659793814433	9.4199017396907	9.4720341013154		
111	16096	1497303147	0.98889802631579	0.037335526315789	9.4206414473684	9.4725244963286		
112	16096	1497303148	0.98963994565217	0.039402173913043	9.4144446331522	9.4664395102638		
113	16096	1497303149	0.98727318548387	0.037550403225806	9.4201948924731	9.4719091008142		
114	16096	1497303150	0.98935746173469	0.036631058673469	9.4222735969388	9.4741902599967		
115	16096	1497303151	0.98952792553191	0.039561170212766	9.4171376329787	9.4691356114588		
116	16096	1497303152	0.98203930412371	0.039344394329897	9.4236871778351	9.4748483020481		
117	16096	1497303153	0.98195482336957	0.038935122282609	9.4226817255435	9.4738297190929		
118	16096	1497303154	0.98046875	0.037681502525253	9.4275568181818	9.4785125471442		
119	16096	1497303155	0.98347039473684	0.040254934210526	9.4217927631579	9.4731121037998		
120	16096	1497303156	0.9884033203125	0.04052734375	9.4174397786458	9.4693086780705		
121	16096	1497303157	0.87225731382979	0.044256981382979	9.4358793218085	9.4771182158736		
122	16096	1497303158	1.0367578125	0.0484765625	9.4071875	9.4659931483978		
123	16096	1497303159	0.98221842447917	0.038899739583333	9.4198404947917	9.4710519479554		
124	16096	1497303160	0.98647203947368	0.039021381578947	9.4218338815789	9.4734681901559		
125	16096	1497303161	0.98532072368421	0.037294407894737	9.4257401315789	9.4772182509699		
126	16096	1497303162	0.9887058423913	0.039274796195652	9.4229364809783	9.4747833139276		
127	16096	1497303163	0.98828125	0.035855263157895	9.42265625	9.4744503214955		
128	16096	1497303164	0.98823924731183	0.038348454301075	9.4254032258065	9.477191860068		
129	16096	1497303165	0.98903858418367	0.038345025510204	9.4223533163265	9.474262465971		
130	16096	1497303166	0.99164727393617	0.038854720744681	9.4200049867021	9.4721680540623		
131	16096	1497303167	0.99206414473684	0.033922697368421	9.4232319078947	9.4754178376094		
132	16096	1497303168	0.99308268229167	0.036336263020833	9.4222819010417	9.4745900355465		
133	16096	1497303169	0.98887310606061	0.038825757575758	9.4242424242424	9.4761113964119		
134	16096	1497303170	0.99335106382979	0.038356050531915	9.4200049867021	9.472356616496		
135	16096	1497303171	0.9930419921875	0.037394205729167	9.4239095052083	9.4762032892448		
136	16096	1497303172	0.99375	0.038585069444444	9.423828125	9.4762093115007		
137	16096	1497303173	0.99019451530612	0.038624043367347	9.4260204081633	9.478015502313		
138	16096	1497303174	0.98990885416667	0.035400390625	9.4226481119792	9.4746425498554		
139	16096	1497303175	0.98828125	0.036800986842105	9.4163651315789	9.4682018576706		
140	16096	1497303176	0.98606085526316	0.036883223684211	9.4187911184211	9.4703881526668		
141	16096	1497303177	0.9873670212766	0.036984707446809	9.4141871675532	9.4659426465681		
142	16096	1497303178	0.99107730263158	0.038363486842105	9.4150904605263	9.4672403426811		
143	16096	1497303179	0.98975134408602	0.034820228494624	9.4124663978495	9.4644726278064		
144	16096	1497303180	0.99153645833333	0.038777669270833	9.4204508463542	9.4726176840563		
145	16096	1497303181	0.99247532894737	0.041570723684211	9.4216694078947	9.4739428554493		
146	16096	1497303182	0.98926767676768	0.036182133838384	9.4240451388889	9.4759443761282		
147	16096	1497303183	0.98849826388889	0.037413194444444	9.4140625	9.4659428973193		
148	16096	1497303184	0.98760920698925	0.038180443548387	9.4220850134409	9.4738339123447		
149	16096	1497303185	0.98769946808511	0.037275598404255	9.421251662234	9.4729964525998		
150	16096	1497303186	0.98710123697917	0.040690104166667	9.4281005859375	9.4797758638814		
151	16096	1497303187	0.97228224734043	0.03852227393617	9.4202127659574	9.4703911668685		
152	16096	1497303188	0.98026739690722	0.042123067010309	9.4224790592784	9.4734741235491		
153	16096	1497303189	0.98128255208333	0.0399169921875	9.4181315104167	9.4692457181066		
154	16096	1497303190	0.98639112903226	0.036878360215054	9.4220430107527	9.4736520360931		
155	16096	1497303191	0.98923703457447	0.037524933510638	9.4231216755319	9.4750232453087		
156	16096	1497303192	0.98503289473684	0.035197368421053	9.4241365131579	9.4755904362022		
157	16096	1497303193	0.98688616071429	0.036870216836735	9.4125876913265	9.4642988906312		
158	16096	1497303194	0.98374495967742	0.03473622311828	9.4180527553763	9.4693905150924		
159	16096	1497303195	0.98562338917526	0.037089239690722	9.4202641752577	9.4718050475329		
160	16096	1497303196	0.98454122340426	0.036444481382979	9.4200049867021	9.4714278533911		
161	16096	1497303197	0.986875	0.0380859375	9.4210546875	9.4727176188057		
162	16096	1497303198	0.9853515625	0.035910866477273	9.4185014204545	9.4700112129701		
163	16096	1497303199	0.98660714285714	0.032752403846154	9.4196428571429	9.4712629420747		
164	16096	1497303200	0.98887567934783	0.036387567934783	9.4169921875	9.4688759098809		
165	16096	1497303201	0.98552631578947	0.037088815789474	9.4307154605263	9.4821806160639		
166	16096	1497303202	0.98696546052632	0.037911184210526	9.4209292763158	9.4726068637214		
167	16096	1497303203	0.98794522849462	0.036122311827957	9.4208249327957	9.472609098551		
168	16096	1497303204	0.98802649456522	0.036769701086957	9.4191151494565	9.4709031695789		
169	16096	1497303205	0.9869384765625	0.037638346354167	9.4159749348958	9.4676704908525		
170	16096	1497303206	0.9868646978022	0.036873282967033	9.4222613324176	9.4739138359955		
171	16096	1497303207	0.98557079081633	0.036431760204082	9.4206393494898	9.4721602818117		
172	16096	1497303208	0.98758223684211	0.036800986842105	9.4138569078947	9.4656275207176		
173	16096	1497303209	0.98512300531915	0.036278257978723	9.4158494015957	9.4673560630621		
174	16096	1497303210	0.98794880319149	0.036610704787234	9.4210438829787	9.4728172794759		
175	16096	1497303211	0.98880476804124	0.035478414948454	9.4164384664948	9.4683168876194		
176	16096	1497303212	0.98490953947368	0.035444078947368	9.4157483552632	9.4672260245343		
177	16096	1497303213	0.98511513157895	0.036101973684211	9.4134046052632	9.4649261363848		
178	16096	1497303214	0.98566365979381	0.035881121134021	9.4178076675258	9.4693529625897		
179	16096	1497303215	0.98658854166667	0.036892361111111	9.4197048611111	9.4713400106413		
180	16096	1497303216	0.98371010638298	0.037524933510638	9.4205036569149	9.4718385432242		
181	16096	1497303217	0.98487903225806	0.036710349462366	9.4183467741935	9.4698139039321		
182	16096	1497303218	0.986083984375	0.0361328125	9.4220784505208	9.4736530997605		
183	16096	1497303219	0.9842529296875	0.0367431640625	9.4156087239583	9.4670239991794		
184	16096	1497303220	0.98522068298969	0.038377899484536	9.4206266108247	9.4721184119194		
185	16096	1497303221	0.98986037234043	0.036319813829787	9.4152260638298	9.467231801289		
186	16096	1497303222	0.98710123697917	0.033121744791667	9.4178059895833	9.4694888319864		
187	16096	1497303223	0.9878241356383	0.036860039893617	9.421875	9.4736256636102		
188	16096	1497303224	0.98869243421053	0.034868421052632	9.4189967105263	9.4708560959851		
189	16096	1497303225	0.9873550257732	0.035438144329897	9.4164384664948	9.4681745648706		
190	16096	1497303226	0.98861019736842	0.034868421052632	9.4185855263158	9.4704496844634		
191	16096	1497303227	0.98811677631579	0.037417763157895	9.421875	9.4736744819165		
192	16096	1497303228	0.98864368556701	0.036122744845361	9.4146262886598	9.4665108789629		
193	16096	1497303229	0.98848260309278	0.035881121134021	9.4160357603093	9.4678980100665		
194	16096	1497303230	0.98514766483516	0.036272321428571	9.4147493131868	9.4662685017508		
195	16096	1497303231	0.98395497311828	0.036500336021505	9.4212029569892	9.4725695080019		
196	16096	1497303232	0.98661295572917	0.036376953125	9.4202473958333	9.4718988962228		
197	16096	1497303233	0.9859375	0.036143092105263	9.4150904605263	9.4666929882169		
198	16096	1497303234	0.98836525537634	0.037802419354839	9.4210349462366	9.4728575871099		
199	16096	1497303235	0.98795572916667	0.0396728515625	9.4153645833333	9.4671864145096		
200	16096	1497303236	0.98532986111111	0.036545138888889	9.4147135416667	9.4662518794794		
201	16096	1497303237	0.98579915364583	0.038859049479167	9.4196370442708	9.4712140986861		
202	16096	1497303238	0.98868075284091	0.037375710227273	9.4172141335227	9.4690973273804		
203	16096	1497303239	0.98878528225806	0.036374327956989	9.4162046370968	9.4680994194231		
204	16096	1497303240	0.98959703947368	0.03671875	9.4202302631579	9.4721904510337		
205	16096	1497303241	0.98598582474227	0.035881121134021	9.4154317010309	9.4670231964267		
206	16096	1497303242	0.98869680851064	0.036070478723404	9.4164311835106	9.4683148367203		
207	16096	1497303243	0.9867912371134	0.037129510309278	9.4123711340206	9.4640708723609		
208	16096	1497303244	0.98715924202128	0.037774268617021	9.4222905585106	9.4739787404614		
209	16096	1497303245	0.98558011968085	0.036693816489362	9.4204205452128	9.4719501118016		
210	16096	1497303246	0.98458277925532	0.035488696808511	9.4203789893617	9.4718091051777		
211	16096	1497303247	0.98506181318681	0.037860576923077	9.4145346840659	9.4660469097995		
212	16096	1497303248	0.98928801546392	0.037653028350515	9.4192171391753	9.4711459804217		
213	16096	1497303249	0.98692255434783	0.03715183423913	9.4153362771739	9.4670362572147		
214	16096	1497303250	0.98832236842105	0.037541118421053	9.4208470394737	9.4726565116378		
215	16096	1497303251	0.98679517663043	0.035750679347826	9.4192425271739	9.4708933622468		
216	16096	1497303252	0.98620345744681	0.035571808510638	9.4148105053191	9.466429621963		
217	16096	1497303253	0.98799342105263	0.038733552631579	9.4171875	9.4690011410522		
218	16096	1497303254	0.98562167553191	0.035530252659574	9.4161818484043	9.4677321423533		
219	16096	1497303255	0.98626644736842	0.039103618421053	9.4175575657895	9.4691885944672		
220	16096	1497303256	0.98522068298969	0.036887886597938	9.4132168170103	9.4647561321951		
221	16096	1497303257	0.98578447164948	0.038740335051546	9.4188949742268	9.4704611870505		
222	16096	1497303258	0.98648756377551	0.03726881377551	9.4202806122449	9.4718993058206		
223	16096	1497303259	0.98770559210526	0.036513157894737	9.4199835526316	9.4717310027474		
224	16096	1497303260	0.98525705645161	0.035198252688172	9.4111643145161	9.4627117953478		
225	16096	1497303261	0.98799641927083	0.036539713541667	9.4187825520833	9.470573992002		
226	16096	1497303262	0.98666057180851	0.03764960106383	9.4229554521277	9.4745919407484		
227	16096	1497303263	0.98734375	0.0371875	9.421328125	9.4730417505786		
228	16096	1497303264	0.98630617977528	0.036648525280899	9.4225333567416	9.4741238715053		
229	16096	1497303265	0.9859619140625	0.0335693359375	9.4220377604167	9.4735803324626		
230	16096	1497303266	0.98979779411765	0.038832720588235	9.4211397058824	9.4731132648434		
231	16096	1497303267	0.98553093112245	0.036033163265306	9.4170918367347	9.4686286684389		
232	16096	1497303268	0.98272390463918	0.037532216494845	9.4168009020619	9.4680609578063		
233	16096	1497303269	0.9858650128866	0.037169780927835	9.4226804123711	9.4742347159214		
234	16096	1497303270	0.98531936813187	0.037302541208791	9.4225618131868	9.4740586175788		
235	16096	1497303271	0.98808195153061	0.038305165816327	9.4202806122449	9.4720729421828		
236	16096	1497303272	0.98653590425532	0.039893617021277	9.425157912234	9.4767734791467		
237	16096	1497303273	0.98701985677083	0.034912109375	9.4246419270833	9.4762885710307		
238	16096	1497303274	0.98836348684211	0.03671875	9.4171052631579	9.4689361331907		
239	16096	1497303275	0.98581414473684	0.035773026315789	9.4212171052632	9.4727600990144		
240	16096	1497303276	0.98667763157895	0.037911184210526	9.4178042763158	9.469468315581		
241	16096	1497303277	0.98566365979381	0.037290592783505	9.4212709407216	9.4728060836757		
242	16096	1497303278	0.98693716397849	0.036962365591398	9.4157426075269	9.467437233777		
243	16096	1497303279	0.98474900265957	0.037774268617021	9.4246176861702	9.4760410897873		
244	16096	1497303280	0.98673502604167	0.0362548828125	9.4187825520833	9.4704419861689		
245	16096	1497303281	0.98711340206186	0.038498711340206	9.4226804123711	9.4743666870911		
246	16096	1497303282	0.99009342783505	0.037371134020619	9.4165995489691	9.4686248921653		
247	16096	1497303283	0.98580729166667	0.035460069444444	9.4231770833333	9.4747180487598		
248	16096	1497303284	0.98950441919192	0.037247474747475	9.419310290404	9.4712641984822		
249	16096	1497303285	0.98553856382979	0.038688497340426	9.4227061170213	9.4742320132637		
250	16096	1497303286	0.98861019736842	0.036924342105263	9.4224095394737	9.4742414678898		
251	16096	1497303287	0.98692064606742	0.035770716292135	9.4194610252809	9.471129926711		
252	16096	1497303288	0.98711340206186	0.037169780927835	9.419056056701	9.4707510455152		
253	16096	1497303289	0.98471467391304	0.034391983695652	9.412109375	9.463584893924		
254	16096	1497303290	0.98665364583333	0.037516276041667	9.4175618489583	9.4692276515189		
255	16096	1497303291	0.98670212765957	0.039270279255319	9.4230801196809	9.474724319629		
256	16096	1497303292	0.98494466145833	0.034830729166667	9.4193929036458	9.4708568606927		
257	16096	1497303293	0.98490953947368	0.036842105263158	9.4173108552632	9.4687853310744		
258	16096	1497303294	0.98433472938144	0.03882087628866	9.4236469072165	9.4750408582816		
259	16096	1497303295	0.98769077034884	0.038880813953488	9.4223292151163	9.4740783221216		
260	16096	1497303296	0.98641123670213	0.036319813829787	9.4175947473404	9.4692295140343		
261	16096	1497303297	0.98673502604167	0.038248697916667	9.42138671875	9.4730412279863		
262	16096	1497303298	0.98390151515152	0.037168560606061	9.4165482954545	9.4679323924228		
263	16096	1497303299	0.98679517663043	0.037449048913043	9.4220872961957	9.4737415416732		
264	16096	1497303300	0.98622532894737	0.032853618421053	9.4206414473684	9.4722175028247		
265	16096	1497303301	0.98900612113402	0.036485180412371	9.4236469072165	9.475513638661		
266	16096	1497303302	0.98671025815217	0.034774116847826	9.4191576086957	9.4708002875657		
267	16096	1497303303	0.98469065656566	0.036142676767677	9.422821969697	9.4742366846447		
268	16096	1497303304	0.98602430555556	0.036111111111111	9.4204861111111	9.4720602753267		
269	16096	1497303305	0.98515625	0.036636513157895	9.4199835526316	9.4714678415459		
270	16096	1497303306	0.98643543956044	0.036787431318681	9.4240212912088	9.4756243574752		
271	16096	1497303307	0.98564967105263	0.036184210526316	9.4229029605263	9.4744211578257		
272	16096	1497303308	0.98895329301075	0.03536626344086	9.4172547043011	9.4691439250893		
273	16096	1497303309	0.98465983072917	0.035563151041667	9.4169921875	9.4684378572541		
274	16096	1497303310	0.99690755208333	0.0367431640625	9.4097900390625	9.4626172289984		
275	16096	1497303311	1.3769124348958	0.11083984375	9.377197265625	9.4802748134716		
276	16096	1497303312	2.0615026595745	0.073844747340426	9.3038979388298	9.5320193687502		
277	16096	1497303313	1.7902138157895	0.098149671052632	9.3212171052632	9.494822397034	s	d
278	16096	1497303314	1.5525350765306	0.13536352040816	9.3533960459184	9.4870411839701		
279	16096	1497303315	1.2405635533708	0.060349367977528	9.4011148174157	9.4854933397588		
280	16096	1497303316	1.1428571428571	0.062898596938776	9.3941725127551	9.4646066504781		
281	16096	1497303317	1.0920462101064	0.067652925531915	9.4038813164894	9.4679995681796		
282	16096	1497303318	1.0657749368687	0.068458017676768	9.4204150883838	9.4822048555642		
283	16096	1497303319	1.0608723958333	0.075113932291667	9.4142252604167	9.4760735170825		
284	16096	1497303320	1.0107204861111	0.081553819444444	9.4162326388889	9.471450433828		
285	16096	1497303321	1.0051649305556	0.066710069444444	9.4273871527778	9.4819642774502		
286	16096	1497303322	1.0113075657895	0.051726973684211	9.4128700657895	9.4678103811521		
287	16096	1497303323	1.011328125	0.087586805555556	9.3944444444444	9.4502049619848		
288	16096	1497303324	0.99734213917526	0.074742268041237	9.4368556701031	9.4912393775585		
289	16096	1497303325	1.0018901209677	0.049647177419355	9.4136004704301	9.4672476102859		
290	16096	1497303326	1.0100047831633	0.077925701530612	9.4074059311224	9.462970065362		
291	16096	1497303327	0.9905931122449	0.13568239795918	9.4296077806122	9.4863051586569		
292	16096	1497303328	0.99653672680412	0.1039787371134	9.4068943298969	9.4627296232234		
293	16096	1497303329	0.97286184210526	0.11944901315789	9.40859375	9.4636209317007		
294	16096	1497303330	0.99678548177083	0.090413411458333	9.4355061848958	9.4897090442099		
295	16096	1497303331	1.0083165322581	0.10286458333333	9.4214129704301	9.4775778474365		
296	16096	1497303332	1.0162693298969	0.1325306056701	9.367912371134	9.4264146100619		
297	16096	1497303333	0.96192434210526	0.10357730263158	9.4141447368421	9.4647923245665		
298	16096	1497303334	0.98337850765306	0.096380739795918	9.4374202806122	9.490119795486		
299	16096	1497303335	0.97595844072165	0.079655283505155	9.4041156572165	9.4556155332668		
300	16096	1497303336	0.97127525252525	0.25197285353535	9.4448390151515	9.5025180932562		
301	16096	1497303337	1.0024007161458	0.2884521484375	9.4397379557292	9.5072636113214		
302	16096	1497303338	0.98433159722222	0.32374131944444	9.4498263888889	9.5190149678301		
303	16096	1497303339	0.96907216494845	0.24500644329897	9.4430573453608	9.5041417879964		
304	16096	1497303340	0.97886513157895	0.27109375	9.4447779605263	9.5085391396013		
305	16096	1497303341	0.95760690789474	0.083799342105263	9.4426398026316	9.4927960218713		
306	16096	1497303342	0.96497252747253	0.11074862637363	9.3836280906593	9.4352011166705		
307	16096	1497303343	1.0300268308081	0.086174242424242	9.4124053030303	9.4696404088609		
308	16096	1497303344	1.0502825797872	0.11602393617021	9.4498005319149	9.5103791935528		
309	16096	1497303345	1.004543138587	0.15196161684783	9.4391559103261	9.4960851536051		
310	16096	1497303346	0.94893391927083	0.097208658854167	9.3956705729167	9.4454818529665		
311	16096	1497303347	0.49455618351064	0.092918882978723	9.4515874335106	9.4660815857215		
312	16096	1497303348	0.50251116071429	0.13468590561224	9.4805883290816	9.496105766269		
313	16096	1497303349	0.63164465206186	0.15806217783505	9.4350032216495	9.4589733418155		
314	16096	1497303350	0.927734375	0.22104279891304	9.4211531929348	9.4726411701968		
315	16096	1497303351	0.76803188131313	0.2528014520202	9.4460227272727	9.4852205541342		
316	16096	1497303352	0.58723958333333	0.14058299731183	9.4639616935484	9.4838983322603		
317	16096	1497303353	0.57080592105263	0.10345394736842	9.4487253289474	9.4670096274421		
318	16096	1497303354	0.70450846354167	0.0736083984375	9.4305013020833	9.4586618010038		
319	16096	1497303355	0.92237367021277	0.054936835106383	9.4284823803191	9.4741812821762		
320	16096	1497303356	0.92249177631579	0.046504934210526	9.4044407894737	9.4500861882197		
321	16096	1497303357	0.89278157552083	0.074381510416667	9.3692626953125	9.4128029732215		
322	16096	1497303358	0.55193256578947	0.081455592105263	9.4279194078947	9.4459163158547		
323	16096	1497303359	0.48143524484536	0.082232603092784	9.4605347938144	9.4736076405672		
324	16096	1497303360	0.48026315789474	0.069860197368421	9.4516036184211	9.464810831473		
325	16096	1497303361	0.49886067708333	0.05615234375	9.4468180338542	9.4609299461686		
326	16096	1497303362	0.52927673969072	0.091615657216495	9.4536485180412	9.4699888341216		
327	16096	1497303363	0.52007728494624	0.099756384408602	9.4563172043011	9.4723645160215		
328	16096	1497303364	0.77794164540816	0.085020727040816	9.4118702168367	9.4464794192455		
329	16096	1497303365	0.90994395380435	0.085767663043478	9.3937669836957	9.4402276417204		
330	16096	1497303366	1.239569481383	0.1664727393617	9.4162234042553	9.5063532580083		
331	16096	1497303367	1.2069901315789	0.11171875	9.4212993421053	9.5051464968946		
332	16096	1497303368	1.188123337766	0.1436170212766	9.4341339760638	9.5167479727993		
333	16096	1497303369	1.1661595394737	0.13992598684211	9.4348684210526	9.5125875787927		
334	16096	1497303370	1.0218999335106	0.14527925531915	9.4884890292553	9.5472387514749		
335	16096	1497303371	0.95750343406593	0.1564217032967	9.4742445054945	9.5285267063056		
336	16096	1497303372	0.99098238031915	0.10895944148936	9.495470412234	9.5499476890829		
337	16096	1497303373	0.99323453608247	0.13623550257732	9.4439432989691	9.5025819738971		
338	16096	1497303374	0.9990234375	0.156494140625	9.4163411458333	9.4764968930608		
339	16096	1497303375	0.97940340909091	0.12630208333333	9.4077099116162	9.4620874993973		
340	16096	1497303376	0.96829769736842	0.18700657894737	9.4329769736842	9.4942224100338		
341	16096	1497303377	0.99944196428571	0.12810905612245	9.4197225765306	9.4766584782388		
342	16096	1497303378	0.97107712765957	0.11735372340426	9.3838098404255	9.4402186531045		
343	16096	1497303379	0.98359375	0.14436677631579	9.4542351973684	9.5120332557375		
344	16096	1497303380	0.99202473958333	0.1065673828125	9.427978515625	9.4840590296733		
345	16096	1497303381	0.96962691326531	0.16912468112245	9.418287627551	9.4729016816887		
346	16096	1497303382	1.0023026315789	0.19358552631579	9.3751233552632	9.4352365710615		
347	16096	1497303383	1.1073811848958	0.15763346354167	9.4119873046875	9.4823598293384		
348	16096	1497303384	1.0251913265306	0.18861607142857	9.4255022321429	9.4871060362611		
349	16096	1497303385	1.0931332236842	0.19268092105263	9.4518914473684	9.5192398783887		
350	16096	1497303386	1.1340176196809	0.19261136968085	9.5003324468085	9.574016271206		
351	16096	1497303387	1.1178651147959	0.21544164540816	9.5061383928571	9.5815557643423		
352	16096	1497303388	1.1479193239796	0.16083386479592	9.5123963647959	9.5890802306691		
353	16096	1497303389	1.1568603515625	0.13411458333333	9.4641520182292	9.5400155768029		
354	16096	1497303390	1.1466224747475	0.12196180555556	9.4061316287879	9.4789950001076		
355	16096	1497303391	1.1034552190722	0.12745650773196	9.4010550902062	9.4682085018677		
356	16096	1497303392	1.1347857603093	0.1436050257732	9.401618878866	9.4732913243326		
357	16096	1497303393	1.0823190789474	0.11899671052632	9.4067434210526	9.4716151184149		
358	16096	1497303394	1.1136798469388	0.12089445153061	9.4022640306122	9.4705130035294		
359	16096	1497303395	1.1438869201031	0.19478898195876	9.4095119201031	9.4862249519432		
360	16096	1497303396	1.1456414473684	0.22191611842105	9.3823190789474	9.4612483887706		
361	16096	1497303397	1.0994243421053	0.15818256578947	9.4424753289474	9.5125398087211		
362	16096	1497303398	0.95444078947368	0.20884046052632	9.4557565789474	9.5142163598545		
363	16096	1497303399	0.66481050531915	0.19672539893617	9.4552859042553	9.4871838398089		
364	16096	1497303400	0.62440210459184	0.12814891581633	9.440090880102	9.4653104811576		
365	16096	1497303401	0.29383223684211	0.12150493421053	9.3619654605263	9.3703475549857		
366	16096	1497303402	0.3182373046875	0.17578125	9.5192464192708	9.5287707536799		
367	16096	1497303403	0.22426707474227	0.21009181701031	9.5556942654639	9.5639899540849		
368	16096	1497303404	0.65306862113402	0.14308150773196	9.477287371134	9.5062369640316		
369	16096	1497303405	1.0149403994845	0.28777384020619	9.4424532860825	9.5096607765166		
370	16096	1497303406	0.9327392578125	0.22721354166667	9.4331868489583	9.488154225167		
371	16096	1497303407	0.89927455357143	0.12288743622449	9.4657206632653	9.5114679918294		
372	16096	1497303408	0.94387335526316	0.22088815789474	9.3847861842105	9.4413365690319		
373	16096	1497303409	0.96081792091837	0.15860172193878	9.4315210459184	9.4850601069614		
374	16096	1497303410	0.99506353021978	0.12113667582418	9.4385731456044	9.4946123971629		
375	16096	1497303411	0.935546875	0.127685546875	9.4473063151042	9.4980496293598		
376	16096	1497303412	0.53084309895833	0.15482584635417	9.4976399739583	9.5176348765097		
377	16096	1497303413	0.63597074468085	0.13779920212766	9.4424867021277	9.46745817603		
378	16096	1497303414	0.60642538265306	0.14066485969388	9.448899872449	9.4719780124839		
379	16096	1497303415	0.58500339673913	0.11391813858696	9.4847995923913	9.5071679935631		
380	16096	1497303416	0.60005040322581	0.14461525537634	9.4774865591398	9.5039234252348		
381	16096	1497303417	0.88289221938776	0.12093431122449	9.4309630102041	9.4780448415772		
382	16096	1497303418	0.95113118489583	0.16499837239583	9.4106852213542	9.4644460503617		
383	16096	1497303419	0.98014658505155	0.20352770618557	9.4133778994845	9.4730468220651		
384	16096	1497303420	0.97211602393617	0.21446974734043	9.4373753324468	9.4950444344497		
385	16096	1497303421	0.99943621134021	0.53120972938144	9.4813547036082	9.5701106823943		
386	16096	1497303422	0.936767578125	0.55318196614583	9.4605712890625	9.5435343250961		
387	16096	1497303423	0.8990478515625	0.64937337239583	9.47998046875	9.5702687811745		
388	16096	1497303424	0.84404089095745	0.203125	9.4331781914894	9.4787819956048		
389	16096	1497303425	0.8450927734375	0.51216634114583	9.4189453125	9.4829370600641		
390	16096	1497303426	0.86364368556701	0.71544780927835	9.3885711984536	9.4746232202485		
391	16096	1497303427	0.94300986842105	0.67224506578947	9.3225740131579	9.4155759734275		
392	16096	1497303428	0.99149576822917	0.3319091796875	9.3961995442708	9.466766456487		
393	16096	1497303429	0.95470328282828	0.11249210858586	9.3716066919192	9.4231733069546		
394	16096	1497303430	0.92259987113402	0.14400773195876	9.4714481314433	9.5198410274404		
395	16096	1497303431	0.95831990979381	0.11630154639175	9.4431378865979	9.4934987910984		
396	16096	1497303432	0.58235677083333	0.12516276041667	9.45166015625	9.4730150351263		
397	16096	1497303433	0.63360969387755	0.14927455357143	9.4477040816327	9.4726723594465		
398	16096	1497303434	0.95123106060606	0.10231218434343	9.4204940025253	9.4704528464148		
399	16096	1497303435	0.94802295918367	0.16075414540816	9.4394132653061	9.492442829807		
400	16096	1497303436	0.94237274484536	0.26522229381443	9.4033907860825	9.4645408633691		
401	16096	1497303437	0.90508215206186	0.27476643041237	9.4213917525773	9.4760015566991		
402	16096	1497303438	0.62890625	0.28211348684211	9.3956825657895	9.4280106130715		
403	16096	1497303439	0.9163115530303	0.29391571969697	9.3757891414141	9.4335827038778		
404	16096	1497303440	0.92247596153846	0.33331902472527	9.4355254120879	9.4964276729936		
405	16096	1497303441	0.9473876953125	0.28666178385417	9.350830078125	9.4120954597812		
406	16096	1497303442	0.6263671875	0.3405078125	9.436640625	9.4731315268998		
407	16096	1497303443	0.42666720360825	0.30649967783505	9.4851804123711	9.5070851011146		
408	16096	1497303444	0.54300944010417	0.15592447916667	9.4828694661458	9.5064599364479		
409	16096	1497303445	0.84852430555556	0.14425505050505	9.4643308080808	9.5098097830072		
410	16096	1497303446	0.98983577806122	0.13883131377551	9.439453125	9.4958547037034		
411	16096	1497303447	0.98959748641304	0.10304857336957	9.3887143342391	9.4444120942751		
412	16096	1497303448	0.98410426980198	0.11552444306931	9.3905089727723	9.4462915559042		
413	16096	1497303449	0.97744845360825	0.088998067010309	9.3907860824742	9.4447081814872		
414	16096	1497303450	0.96999838917526	0.075910115979381	9.4160357603093	9.4678911250413		
415	16096	1497303451	0.97253787878788	0.082859848484848	9.3910195707071	9.4435057579544		
416	16096	1497303452	1.014954229798	0.28843118686869	9.4561631944444	9.5263017547613		
417	16096	1497303453	1.0365513392857	0.59964923469388	9.4416454081633	9.5378965226233		
418	16096	1497303454	0.94578598484848	0.53910195707071	9.4682765151515	9.5526763527435		
419	16096	1497303455	0.90187026515152	0.55153093434343	9.4398279671717	9.5188141488208		
420	16096	1497303456	0.93188996010638	0.54030917553191	9.4546625664894	9.5384426212743		
421	16096	1497303457	0.868408203125	0.34200032552083	9.4173583984375	9.4784898262727		
422	16096	1497303458	0.9253125	0.1522265625	9.39453125	9.4467010570283		
423	16096	1497303459	0.95678962628866	0.091454574742268	9.3748389175258	9.4257694995319		
424	16096	1497303460	0.9604296875	0.1692578125	9.3891796875	9.4422079879344		
425	16096	1497303461	0.95968911082474	0.13434278350515	9.3959407216495	9.4481008521613		
426	16096	1497303462	0.99001736111111	0.18761837121212	9.409485479798	9.4675140594104		
427	16096	1497303463	0.90333017676768	0.15692077020202	9.3776041666667	9.4254384307707		
428	16096	1497303464	0.62093431122449	0.11088966836735	9.4149792729592	9.4393653304581		
429	16096	1497303465	0.91183035714286	0.11312181122449	9.4129464285714	9.4592051960338		
430	16096	1497303466	0.54819036989796	0.087651466836735	9.5001992984694	9.517426736497		
431	16096	1497303467	0.58759973404255	0.079704122340426	9.4831698803191	9.5022563881372		
432	16096	1497303468	0.85873724489796	0.11639030612245	9.4309231505102	9.472271918476		
433	16096	1497303469	0.52902960526316	0.065583881578947	9.4637746710526	9.4793239261565		
434	16096	1497303470	0.34919507575758	0.062894570707071	9.5024857954545	9.5100711402127		
435	16096	1497303471	0.47010869565217	0.062117866847826	9.4732506793478	9.4855060449117		
436	16096	1497303472	0.47736055107527	0.068338373655914	9.4868951612903	9.4998396333333		
437	16096	1497303473	0.22340593434343	0.054648042929293	9.5058396464646	9.5094418884543		
438	16096	1497303474	0.14597486413043	0.044242527173913	9.5247112771739	9.5261858990661		
439	16096	1497303475	0.12626262626263	0.05401672979798	9.5173216540404	9.518759120151		
440	16096	1497303476	0.86588541666667	0.055295138888889	9.4276475694444	9.4721020918009	s	s
441	16096	1497303477	1.0017269736842	0.16632401315789	9.4146792763158	9.4724737755856		
442	16096	1497303478	1.0388157894737	0.039761513157895	9.4011513157895	9.4595635410588		
443	16096	1497303479	1.0238075657895	0.025699013157895	9.4144325657895	9.4701332978584		
444	16096	1497303480	1.0240589488636	0.027254971590909	9.4216530539773	9.4774254506471		
445	16096	1497303481	1.0290120442708	0.014973958333333	9.4169921875	9.4730976110773		
446	16096	1497303482	1.0255126953125	0.0108642578125	9.4254150390625	9.4810920973551		
447	16096	1497303483	1.0242530906593	0.012190934065934	9.419685782967	9.4752594251623		
448	16096	1497303484	1.0223388671875	0.015869140625	9.42041015625	9.475781257047		
449	16096	1497303485	1.0212953629032	0.015036962365591	9.4273353494624	9.4825451836296		
450	16096	1497303486	1.0232764175258	0.012967139175258	9.4277947809278	9.4832115624163		
451	16096	1497303487	1.0250756048387	0.015667002688172	9.3699176747312	9.4258835023804		
452	16096	1497303488	1.0215447809278	0.016027706185567	9.3766108247423	9.4321488843631		
453	16096	1497303489	1.0227528994845	0.014376610824742	9.3964642396907	9.4520155432227		
454	16096	1497303490	1.0206532579787	0.016040558510638	9.3929521276596	9.4483068883695		
455	16096	1497303491	1.0116784793814	0.017034471649485	9.3968669458763	9.4512307636791		
456	16096	1497303492	1.0133746603261	0.013289741847826	9.3937245244565	9.4482729748185		
457	16096	1497303493	1.0101642219388	0.012157206632653	9.3967235331633	9.4509176534396		
458	16096	1497303494	1.0124838917526	0.021101804123711	9.3919942010309	9.4465065478092		
459	16096	1497303495	1.008131377551	0.015664859693878	9.3933354591837	9.4473393931657		
460	16096	1497303496	1.009127869898	0.022082270408163	9.3924585459184	9.4466453884904		
461	16096	1497303497	1.0135309278351	0.02307506443299	9.389175257732	9.4438138710984		
462	16096	1497303498	1.0136513157895	0.022902960526316	9.3986430921053	9.4547979941785		
463	16096	1497303499	1.0178345959596	0.015230429292929	9.3932686237374	9.4483130909722		
464	16096	1497303500	1.0154215494792	0.017537434895833	9.3943684895833	9.4491546587495		
465	16096	1497303501	1.016954787234	0.015209441489362	9.3892536569149	9.44421522036		
466	16096	1497303502	1.0158641581633	0.016262755102041	9.3868781887755	9.4417446255392		
467	16096	1497303503	1.0171795280612	0.016581632653061	9.393215880102	9.4481788655448		
468	16096	1497303504	1.0166015625	0.0173046875	9.3896484375	9.4445823688163		
469	16096	1497303505	1.0207669005102	0.020448022959184	9.3909040178571	9.4462969904325		
470	16096	1497303506	1.2737283909574	0.058344414893617	9.3524767287234	9.440657191438	s	d
471	16096	1497303507	1.9802753712871	0.16216738861386	9.2740563118812	9.4930032235185		
472	16096	1497303508	2.4589436848958	0.080525716145833	9.227294921875	9.5522310947319		
473	16096	1497303509	2.4237432065217	0.059103260869565	9.2255859375	9.5400499452567		
474	16096	1497303510	2.3123027146465	0.06021148989899	9.243529040404	9.5291338410194		
475	16096	1497303511	2.3409423828125	0.066975911458333	9.2505289713542	9.5431768012872		
476	16096	1497303512	2.2775853737113	0.06995006443299	9.2262403350515	9.5055005778307		
477	16096	1497303513	1.6213353737113	0.10716011597938	9.2980831185567	9.4425994980279		
478	16096	1497303514	1.3847458964646	0.12744633838384	9.3337279040404	9.4383883542925		
479	16096	1497303515	1.3757573341837	0.12890625	9.3491709183673	9.452608475534		
480	16096	1497303516	1.1248405612245	0.10989317602041	9.3860411352041	9.4568925362803		
481	16096	1497303517	0.97026209677419	0.11781754032258	9.404779905914	9.4576470194624		
482	16096	1497303518	0.98526095360825	0.21790431701031	9.4046794458763	9.4657048286967		
483	16096	1497303519	1.0050862630208	0.20682779947917	9.3361002604167	9.3973067916159		
484	16096	1497303520	0.75157828282828	0.10286458333333	9.2544191919192	9.2876516849425		
485	16096	1497303521	0.91260804521277	0.096326462765957	9.233751662234	9.2802729405215		
486	16096	1497303522	0.85022095959596	0.11075599747475	9.202454229798	9.2450412812521		
487	16096	1497303523	0.65226236979167	0.13582356770833	9.3011474609375	9.3284045730795		
488	16096	1497303524	0.51498724489796	0.11698820153061	9.4374601403061	9.4565856191362		
489	16096	1497303525	0.90126329787234	0.11631482712766	9.3945728058511	9.4400093575199		
490	16096	1497303526	0.90984059343434	0.13707386363636	9.4000157828283	9.4469840554515		
491	16096	1497303527	0.89752072704082	0.16179049744898	9.3724489795918	9.4185771680045		
492	16096	1497303528	0.93266969086022	0.11218918010753	9.4499327956989	9.4980402340247		
493	16096	1497303529	1.0217013888889	0.10661300505051	9.4753393308081	9.5323299023413		
494	16096	1497303530	1.0539143880208	0.12516276041667	9.4582112630208	9.5194417928146		
495	16096	1497303531	1.0311304209184	0.12292729591837	9.4347895408163	9.4934884082103		
496	16096	1497303532	0.9676452020202	0.12065972222222	9.5147964015152	9.5658721050683		
497	16096	1497303533	0.95727287371134	0.11070393041237	9.5088192654639	9.5583941541655		
498	16096	1497303534	0.97845521907216	0.10977770618557	9.4112032860825	9.4638900575027		
499	16096	1497303535	0.91170247395833	0.17928059895833	9.3509114583333	9.3992570377003		
500	16096	1497303536	0.94022253787879	0.29995265151515	9.4352509469697	9.4913742550816		
501	16096	1497303537	0.88062836021505	0.46639784946237	9.4788726478495	9.5388486286121		
502	16096	1497303538	0.87300618489583	0.49226888020833	9.4267985026042	9.4891729582261		
503	16096	1497303539	0.85563322368421	0.54835526315789	9.5798519736842	9.6429461310184		
504	16096	1497303540	0.96299342105263	0.59231085526316	9.5213815789474	9.6043707731645		
505	16096	1497303541	1.0687579719388	0.5417330994898	9.5098852040816	9.5922048257348		
506	16096	1497303542	1.0838857323232	0.56226325757576	9.4985006313131	9.5870143234457		
507	16096	1497303543	1.0148354388298	0.64332613031915	9.5841090425532	9.6665470245222		
508	16096	1497303544	1.0334648840206	0.60707957474227	9.5386195231959	9.6209005962882		
509	16096	1497303545	0.9932922979798	0.62452651515152	9.5083254419192	9.5887511600803		
510	16096	1497303546	0.98597861842105	0.57742598684211	9.5895559210526	9.6658303213717		
511	16096	1497303547	1.0741784793814	0.59749516752577	9.4654075386598	9.551939087375		
512	16096	1497303548	1.2180281929348	0.52046535326087	9.405910326087	9.5051142306636		
513	16096	1497303549	1.3163651315789	0.57249177631579	9.4091694078947	9.52290614747		
514	16096	1497303550	1.1732991536458	0.61494954427083	9.4094645182292	9.5104113533578		
515	16096	1497303551	1.3284610215054	0.57132056451613	9.4650117607527	9.5802346579326		
516	16096	1497303552	1.4552631578947	0.55304276315789	9.4520148026316	9.5845807556554		
517	16096	1497303553	1.4775182845745	0.32650432180851	9.3965259308511	9.5210476156219		
518	16096	1497303554	1.4785987367021	0.10920877659574	9.2861951462766	9.4057410678635		
519	16096	1497303555	1.4755045572917	0.251953125	9.3835856119792	9.5052170426719		
520	16096	1497303556	1.5934709821429	0.14022640306122	9.4088010204082	9.5454286794823		
521	16096	1497303557	1.5867745535714	0.13301179846939	9.4646045918367	9.5990847773292		
522	16096	1497303558	1.5892740885417	0.12618001302083	9.459228515625	9.5946672179106		
523	16096	1497303559	1.5758131377551	0.17279177295918	9.3956074617347	9.53085610078		
524	16096	1497303560	1.5113932291667	0.15189615885417	9.3352864583333	9.4606138940657		
525	16096	1497303561	1.4989195478723	0.1733710106383	9.3594581117021	9.4828200748869		
526	16096	1497303562	1.4557425902062	0.14175257731959	9.3821278994845	9.4971810733684		
527	16096	1497303563	1.0561116536458	0.30692545572917	9.4187825520833	9.4915573980678		
528	16096	1497303564	0.656982421875	0.7076416015625	9.3407389322917	9.3957549262311		
529	16096	1497303565	0.54940990691489	0.6147772606383	9.4159325132979	9.456908850426		
530	16096	1497303566	0.4032579787234	0.28041888297872	9.4854970079787	9.5027024818516		
531	16096	1497303567	0.40923947704082	0.10132334183673	9.4951769770408	9.5065383722298		
532	16096	1497303568	0.51698190789474	0.091447368421053	9.4566611842105	9.4724442911066		
533	16096	1497303569	0.57901095360825	0.19116462628866	9.4435808634021	9.4653989814527		
534	16096	1497303570	0.41722074468085	0.27746841755319	9.4217503324468	9.4373240095379		
535	16096	1497303571	0.73955502717391	0.31245754076087	9.4160580842391	9.4518419212492		
536	16096	1497303572	0.93434343434343	0.1807922979798	9.3722380050505	9.4226579504811		
537	16096	1497303573	0.72209246134021	0.13152384020619	9.3924371778351	9.423241506322		
538	16096	1497303574	0.57595486111111	0.085779671717172	9.4362373737374	9.456240157686		
539	16096	1497303575	0.1649887242268	0.10349548969072	9.5224710051546	9.5253860918079		
540	16096	1497303576	0.12558178191489	0.099027593085106	9.5384807180851	9.5406729332191		
541	16096	1497303577	0.068782216494845	0.083642074742268	9.5405525128866	9.5415832172356		
542	16096	1497303578	0.11615728021978	0.073403159340659	9.5335679945055	9.5351351253305		
543	16096	1497303579	0.17255261479592	0.069834183673469	9.5410953443878	9.5435822341292		
544	16096	1497303580	0.46867028061224	0.08235012755102	9.4765625	9.4895000795212		
545	16096	1497303581	0.513671875	0.0882568359375	9.4844970703125	9.4997385035706		
546	16096	1497303582	0.29334275265957	0.082654587765957	9.4763131648936	9.4820328030324		
547	16096	1497303583	0.40852864583333	0.082071940104167	9.5061442057292	9.5159526720341		
548	16096	1497303584	0.29550579896907	0.057828608247423	9.5146182345361	9.5206811264684		
549	16096	1497303585	0.16261275773196	0.087065077319588	9.5219072164948	9.5248557186822		
550	16096	1497303586	0.95263157894737	0.092228618421053	9.4160773026316	9.4698078556521	s	s
551	16096	1497303587	1.1037773840206	0.14283988402062	9.4139819587629	9.4838764207645		
552	16096	1497303588	1.13671875	0.065728635204082	9.4231505102041	9.4938251119606		
553	16096	1497303589	1.1052652994792	0.040934244791667	9.4007161458333	9.465818558934		
554	16096	1497303590	1.1084890463918	0.039022229381443	9.3948534149485	9.460244407379		
555	16096	1497303591	1.1160114247312	0.034232190860215	9.41796875	9.4840685422325		
556	16096	1497303592	1.1103922526042	0.035888671875	9.4162190755208	9.4816795262035		
557	16096	1497303593	1.1046463815789	0.034745065789474	9.4074424342105	9.4722892592809		
558	16096	1497303594	1.1103108723958	0.03662109375	9.4061686197917	9.4716957912173		
559	16096	1497303595	1.1171463815789	0.033634868421053	9.43203125	9.4981555671328		
560	16096	1497303596	1.1083170572917	0.031168619791667	9.4138997395833	9.4791210314826		
561	16096	1497303597	1.1045519770408	0.036272321428571	9.3960060586735	9.4609205454282		
562	16096	1497303598	1.1159408244681	0.039228723404255	9.4118600398936	9.4780299440376		
563	16096	1497303599	1.1093343098958	0.037150065104167	9.4254150390625	9.4906902042574		
564	16096	1497303600	1.1102476728723	0.031166888297872	9.402967087766	9.4685147454594		
565	16096	1497303601	1.1095344387755	0.041693239795918	9.3934151785714	9.4589763435429		
566	16096	1497303602	1.3112386067708	0.064127604166667	9.3860677083333	9.479231996572	s	d
567	16096	1497303603	1.8679049744898	0.16131218112245	9.3178013392857	9.512697783223		
568	16096	1497303604	2.4440524193548	0.10273857526882	9.2611307123656	9.5813308600474		
569	16096	1497303605	2.512356505102	0.083466198979592	9.2462531887755	9.5831773911776		
570	16096	1497303606	2.3900105337079	0.081197331460674	9.2625087780899	9.5670199093306		
571	16096	1497303607	2.4270970394737	0.061019736842105	9.2588815789474	9.5723729803761		
572	16096	1497303608	2.4424321338384	0.056502525252525	9.2533143939394	9.5712840261657		
573	16096	1497303609	2.3173421223958	0.0706787109375	9.2591959635417	9.5459960260135		
574	16096	1497303610	2.173324742268	0.055372100515464	9.1700225515464	9.4248347448025		
575	16096	1497303611	1.9635416666667	0.066028225806452	9.284190188172	9.4904774166948		
576	16096	1497303612	1.7294722576531	0.087093431122449	9.3271683673469	9.487373805229		
577	16096	1497303613	1.6357421875	0.093113111413043	9.3788637907609	9.5217996743716		
578	16096	1497303614	1.6690789473684	0.11759868421053	9.3753700657895	9.5247437957049		
579	16096	1497303615	1.5927029639175	0.1496456185567	9.280887564433	9.4193144446234		
580	16096	1497303616	1.5643524484536	0.19760792525773	9.2999758376289	9.434785774946		
581	16096	1497303617	1.5048926767677	0.20951704545455	9.2178424873737	9.3449103991148		
582	16096	1497303618	1.2755756578947	0.23675986842105	9.2995476973684	9.39228905457		
583	16096	1497303619	1.210575064433	0.26892719072165	9.3836581829897	9.4674761440019		
584	16096	1497303620	1.1963887117347	0.37779017857143	9.5521763392857	9.6390239236523		
585	16096	1497303621	1.3693716397849	0.37768817204301	9.5307039650538	9.6395258606889		
586	16096	1497303622	1.129225127551	0.42885044642857	9.5677614795918	9.6478056562445		
587	16096	1497303623	1.0095038659794	0.41221005154639	9.6659552190722	9.7331641565959		
588	16096	1497303624	1.2595038659794	0.27480670103093	9.567855992268	9.6585804574663		
589	16096	1497303625	1.5560427295918	0.23513233418367	9.5054209183673	9.6386208734921		
590	16096	1497303626	1.372423537234	0.12691156914894	9.5439660904255	9.6447033719556		
591	16096	1497303627	1.1266510953608	0.17654639175258	9.5813466494845	9.6525645353585		
592	16096	1497303628	1.1871484375	0.22671875	9.405546875	9.4874395861761		
593	16096	1497303629	0.99560546875	0.28597005208333	9.4197591145833	9.4818941294364		
594	16096	1497303630	0.91703125	0.44921875	9.3853125	9.4462820147677		
595	16096	1497303631	0.96372174202128	0.47045378989362	9.5415974069149	9.6094406009071		
596	16096	1497303632	0.96101641414141	0.38944128787879	9.4167061237374	9.4809743667588		
597	16096	1497303633	0.7926025390625	0.344482421875	9.4787190755208	9.5259870920494		
598	16096	1497303634	0.67632147606383	0.27726063829787	9.3686835106383	9.4011980740234		
599	16096	1497303635	0.6897265625	0.1964453125	9.3790625	9.4100697048731		
600	16096	1497303636	0.51114309210526	0.19469572368421	9.3986842105263	9.417907747601		
601	16096	1497303637	0.50739247311828	0.16343245967742	9.3637432795699	9.3807250123104		
602	16096	1497303638	0.43355389030612	0.10335618622449	9.4808673469388	9.4925414913491		
603	16096	1497303639	0.24184409340659	0.1447029532967	9.5510817307692	9.5571332157888		
604	16096	1497303640	0.094716494845361	0.21742106958763	9.5652384020619	9.5691758578114		
605	16096	1497303641	0.14362980769231	0.17324862637363	9.548334478022	9.5520586612464		
606	16096	1497303642	0.39823190789474	0.12294407894737	9.5092105263158	9.5196753955273		
607	16096	1497303643	0.40496222527473	0.079326923076923	9.4442393543956	9.4547915195044		
608	16096	1497303644	0.1511080994898	0.078164859693878	9.4588249362245	9.4613869474169		
609	16096	1497303645	0.23385682397959	0.079280931122449	9.4952168367347	9.4991176530722		
610	16096	1497303646	0.2328464673913	0.082116168478261	9.5176630434783	9.52207585536		
611	16096	1497303647	0.20654296875	0.11474609375	9.5369873046875	9.5420305609141		
612	16096	1497303648	0.20520550271739	0.1342136548913	9.5674677309783	9.5723927753984		
613	16096	1497303649	0.1760631443299	0.11348260309278	9.5264980670103	9.5300445401791		
614	16096	1497303650	0.18396381578947	0.13926809210526	9.5368832236842	9.5410973536547		
615	16096	1497303651	0.22714428191489	0.1401678856383	9.5141289893617	9.5197249663215		
616	16096	1497303652	0.28628382731959	0.088555090206186	9.5034632731959	9.5093420583884		
617	16096	1497303653	0.29900934278351	0.070715206185567	9.504631121134	9.5101499964989		
618	16096	1497303654	0.54120463709677	0.040364583333333	9.4696320564516	9.4897672912315		
619	16096	1497303655	0.92415364583333	0.094278971354167	9.4276936848958	9.4763390699832	s	s
620	16096	1497303656	0.94897712628866	0.12242268041237	9.4337145618557	9.4856916180982		
621	16096	1497303657	0.94832710597826	0.020253057065217	9.4271824048913	9.4749591457795		
622	16096	1497303658	0.94782366071429	0.024832589285714	9.4254225127551	9.4732310591137		
623	16096	1497303659	0.98909684065934	0.24738152472527	9.4355683379121	9.5075023811371		
624	16096	1497303660	0.97322003865979	0.98083118556701	9.3230106314433	9.4466028732733		
625	16096	1497303661	0.87568460051546	1.3619523195876	9.2523759664948	9.3942799313261		
626	16096	1497303662	1.6435746173469	1.675462372449	9.6411431760204	10.013248437893		
627	16096	1497303663	1.4884008290816	5.2479671556122	7.0953045280612	9.6886245736528		
628	16096	1497303664	1.4070060483871	1.5319220430108	9.6405829973118	10.037172142383		
629	16096	1497303665	1.2802835051546	2.4317413015464	9.3834568298969	10.08164001774		
630	16096	1497303666	0.70004111842105	0.72417763157895	9.4736842105263	9.582678782108		
631	16096	1497303667	0.46287048969072	0.43838595360825	9.433231314433	9.4638241973061		
632	16096	1497303668	0.74855638586957	0.46178668478261	9.4934188179348	9.5579919303022		
633	16096	1497303669	0.6883544921875	0.2529296875	9.4677734375	9.5098078125153		
634	16096	1497303670	1.1889802631579	0.40990953947368	9.4309210526316	9.5290512464992		
635	16096	1497303671	0.79022606382979	0.38443317819149	9.4614361702128	9.5032024438431		
636	16096	1497303672	0.65427673969072	0.34761597938144	9.4673807989691	9.4970295661007		
637	16096	1497303673	0.62176579301075	0.42166498655914	9.4849210349462	9.5157424829891		
638	16096	1497303674	0.64732142857143	0.50326849489796	9.4809072066327	9.5163858310889		
639	16096	1497303675	0.61037234042553	0.4483045212766	9.4753158244681	9.5066755849266		
640	16096	1497303676	0.46496710526316	0.44506578947368	9.4866776315789	9.5234625763546		
641	16096	1497303677	0.17133477393617	0.50336602393617	9.4927277260638	9.5116888871644	s	d
642	16096	1497303678	0.72942171391753	0.54312983247423	9.5508215206186	9.6048857742643		
643	16096	1497303679	1.0242960164835	0.2057864010989	9.5197029532967	9.5808666026749		
644	16096	1497303680	0.97091090425532	0.34578623670213	9.5199883643617	9.5773375341738		
645	16096	1497303681	0.9391966540404	0.35637626262626	9.5329466540404	9.5903771313482		
646	16096	1497303682	1.0097446236559	0.23357694892473	9.5357862903226	9.5943234999563		
647	16096	1497303683	1.0129801432292	0.22562662760417	9.516845703125	9.5739187168515		
648	16096	1497303684	0.86377992021277	0.31262466755319	9.5041971409574	9.5521340788427		
649	16096	1497303685	0.98388671875	0.65205891927083	9.5234781901042	9.6065108211435		
650	16096	1497303686	0.59399671052632	1.3231907894737	9.4838815789474	9.5996036411658		
651	16096	1497303687	0.099588815789474	1.6373766447368	9.4530838815789	9.5971920253362		
652	16096	1497303688	0.34839638157895	1.6212171052632	9.4716282894737	9.6237871232118		
653	16096	1497303689	0.4819610252809	1.8314167837079	9.4496137640449	9.6391645249574		
654	16096	1497303690	0.10662468112245	2.0421715561224	9.4644850127551	9.6854280373991		
655	16096	1497303691	0.21373355263158	1.8227384868421	9.4879111842105	9.6679947886311		
656	16096	1497303692	0.31005366161616	1.0961963383838	9.5527146464646	9.6319522043092		
657	16096	1497303693	0.11904198232323	0.7734375	9.5330255681818	9.5738576439565		
658	16096	1497303694	0.11489470108696	0.78969938858696	9.5803328804348	9.6179583429258		
659	16096	1497303695	0.12025669642857	0.7995455994898	9.5233976403061	9.5603718241128		
660	16096	1497303696	0.06640625	0.70176809210526	9.5446546052632	9.5757940930375		
661	16096	1497303697	0.14022640306122	0.89070471938776	9.5548469387755	9.6029419670464		
662	16096	1497303698	0.16015625	0.87906407828283	9.5583175505051	9.6012727494889		
663	16096	1497303699	0.14814967105263	0.83787006578947	9.5401315789474	9.5814695520062		
664	16096	1497303700	0.17345412234043	0.81998005319149	9.5374418218085	9.5790874368645		
665	16096	1497303701	0.093152104591837	0.85172193877551	9.5286989795918	9.5690389509771		
666	16096	1497303702	0.060315860215054	0.84396001344086	9.563466061828	9.6033652424353		
667	16096	1497303703	0.091171875	0.988828125	9.5778515625	9.6314813475376		
668	16096	1497303704	0.13949742268041	0.90983408505155	9.5385792525773	9.5910532852649		
669	16096	1497303705	0.12949810606061	1.0615924873737	9.5469539141414	9.6116880216499		
670	16096	1497303706	0.15222293814433	1.0542847938144	9.549331507732	9.6147809561089		
671	16096	1497303707	0.1390625	1.1515625	9.5776315789474	9.6527628243577		
672	16096	1497303708	0.33569834183673	1.0138313137755	9.5355548469388	9.6011465959174		
673	16096	1497303709	0.52396101804124	0.97603898195876	9.4790592783505	9.5523341124761		
674	16096	1497303710	0.41115359042553	0.4350897606383	9.4977144281915	9.5235842829286		
675	16096	1497303711	0.1624053030303	0.19448390151515	9.5379182449495	9.5423567096679		
676	16096	1497303712	0.18375997340426	0.18234707446809	9.4697057845745	9.4749924665351		
677	16096	1497303713	0.15427714646465	0.16662720959596	9.5174400252525	9.52115689485		
678	16096	1497303714	0.15393985215054	0.20106686827957	9.4537970430108	9.4583818255566		
679	16096	1497303715	0.28204719387755	0.5023118622449	9.4602200255102	9.4801608722025		
680	16096	1497303716	0.36400612113402	0.86005960051546	9.4901336984536	9.5410021583613		
681	16096	1497303717	0.38268914473684	0.86319901315789	9.4539473684211	9.5045931742158		
682	16096	1497303718	0.40185032894737	0.90563322368421	9.4300164473684	9.4896363676443		
683	16096	1497303719	0.45220094086022	0.81077788978495	9.4344758064516	9.4880486885361		
684	16096	1497303720	0.951171875	0.82303873697917	9.3841552734375	9.4747519910915		
685	16096	1497303721	0.96468592171717	0.68647411616162	9.456084280303	9.5335169530695		
686	16096	1497303722	1.4132133152174	0.62236752717391	9.4186905570652	9.5465695516533		
687	16096	1497303723	1.1356201171875	0.4937744140625	9.45458984375	9.5392274293603		
688	16096	1497303724	1.6935808634021	0.26928962628866	9.4669780927835	9.6238499555854		
689	16096	1497303725	1.5454508463542	0.1661376953125	9.4825032552083	9.6115537426582		
690	16096	1497303726	1.3606363932292	0.12296549479167	9.4781087239583	9.5769472210778		
691	16096	1497303727	1.3248697916667	0.211669921875	9.4944254557292	9.5905028169579		
692	16096	1497303728	1.2534993489583	0.22066243489583	9.457763671875	9.5450760102556		
693	16096	1497303729	1.3416156572165	0.12121456185567	9.4717300257732	9.5676899414714		
694	16096	1497303730	1.4051224226804	0.08178962628866	9.4672599871134	9.5715978994345		
695	16096	1497303731	0.98307291666667	0.10451388888889	9.4759548611111	9.5282612755235		
696	16096	1497303732	0.675537109375	0.11385091145833	9.468017578125	9.4939419859056		
697	16096	1497303733	0.58666237113402	0.14594072164948	9.4907780283505	9.5102092511372		
698	16096	1497303734	0.74465460526316	0.10900493421053	9.4797286184211	9.5102432882536		
699	16096	1497303735	1.1471628289474	0.097532894736842	9.46953125	9.5395424748497		
700	16096	1497303736	0.85752467105263	0.11537828947368	9.4674753289474	9.507337482705		
701	16096	1497303737	0.77792553191489	0.14008477393617	9.4783494015957	9.511487443976		
702	16096	1497303738	1.0907164228723	0.15458776595745	9.4600232712766	9.5252823107819		
703	16096	1497303739	0.74150068681319	0.19943337912088	9.4771205357143	9.5159590232744	s	s
704	16096	1497303740	0.19394329896907	0.13510792525773	9.4803076675258	9.4862306550269		
705	16096	1497303741	0.14895260989011	0.15440418956044	9.4883241758242	9.4922376127809		
706	16096	1497303742	0.14786184210526	0.10859375	9.4901315789474	9.4939147858909		
707	16096	1497303743	0.28268494897959	0.16860650510204	9.4717793367347	9.4800383496085		
708	16096	1497303744	0.31409610215054	0.14742943548387	9.4925235215054	9.4999617727963		
709	16096	1497303745	0.29679276315789	0.27981085526316	9.5158717105263	9.5252713933036		
710	16096	1497303746	0.19925860969388	0.21831154336735	9.4821428571429	9.4874888993544		
711	16096	1497303747	0.20411184210526	0.24074835526316	9.4995888157895	9.5049569212876		
712	16096	1497303748	0.2307627688172	0.23613911290323	9.488533266129	9.4944314279935		
713	16096	1497303749	0.22277706185567	0.22982442010309	9.499637564433	9.5052565729388		
714	16096	1497303750	0.22206182065217	0.21000339673913	9.492824388587	9.4979000957938		
715	16096	1497303751	0.23453608247423	0.21713917525773	9.4939996778351	9.4994722820879		
716	16096	1497303752	0.25633680555556	0.22664930555556	9.4881510416667	9.4944356025236		
717	16096	1497303753	0.25023674242424	0.23504577020202	9.4953046085859	9.5016556770805		
718	16096	1497303754	0.24029605263158	0.25419407894737	9.4984786184211	9.5050548047394		
719	16096	1497303755	0.23750858516484	0.27489697802198	9.4884100274725	9.4954590985856		
720	16096	1497303756	0.2347412109375	0.28271484375	9.4952392578125	9.5024671539553		
721	16096	1497303757	0.22928873697917	0.29410807291667	9.4983317057292	9.5057582967216		
722	16096	1497303758	0.23475302419355	0.29905913978495	9.4980258736559	9.5057682523618		
723	16096	1497303759	0.23392269736842	0.30838815789474	9.4940789473684	9.5020928609465		
724	16096	1497303760	0.15543619791667	0.38142903645833	9.5043131510417	9.5146856963419	s	d
725	16096	1497303761	0.79618326822917	0.263671875	9.5053304036458	9.5532656769604		
726	16096	1497303762	1.2325246710526	0.12767269736842	9.5182154605263	9.6058143255462		
727	16096	1497303763	1.1886837121212	0.066840277777778	9.4875315656566	9.5638471346671		
728	16096	1497303764	0.85847039473684	0.24239309210526	9.5276315789474	9.5709766640362		
729	16096	1497303765	0.86763509114583	0.19901529947917	9.4997151692708	9.5418109228768		
730	16096	1497303766	0.80074097938144	0.28092783505155	9.5194104381443	9.5581747414881		
731	16096	1497303767	0.58030427631579	0.31307565789474	9.4985608552632	9.5229201508154		
732	16096	1497303768	0.94434600515464	0.32095682989691	9.5185647551546	9.5711097974749		
733	16096	1497303769	0.79817708333333	0.38312815656566	9.516571969697	9.5582096562822		
734	16096	1497303770	0.64690721649485	0.3975112757732	9.661605992268	9.6917461956375		
735	16096	1497303771	0.40361842105263	0.35497532894737	9.6883223684211	9.7038746963715		
736	16096	1497303772	0.25338807397959	0.34713807397959	9.6859454719388	9.6969223181976		
737	16096	1497303773	0.15975354381443	0.35901256443299	9.6779961340206	9.6880042631946		
738	16096	1497303774	0.44756283967391	0.32345448369565	9.6079313858696	9.6249239733175		
739	16096	1497303775	0.43598790322581	0.29347278225806	9.4719422043011	9.4872281932233		
740	16096	1497303776	0.35050455729167	0.35880533854167	9.4701741536458	9.4851346200014		
741	16096	1497303777	0.3538743622449	0.21328922193878	9.4740513392857	9.4853237718499		
742	16096	1497303778	0.46858891752577	0.29143846649485	9.5698292525773	9.5880403460359		
743	16096	1497303779	0.39565882731959	0.31632570876289	9.4826433634021	9.500738589948		
744	16096	1497303780	0.13643973214286	0.26666135204082	9.5339604591837	9.5406349730694		
745	16096	1497303781	0.42742598684211	0.34856085526316	9.5007401315789	9.5200602629729		
746	16096	1497303782	0.44481382978723	0.31038065159574	9.4952210771277	9.5141184244438		
747	16096	1497303783	0.48824139030612	0.14748086734694	9.5312898596939	9.5457973071114		
748	16096	1497303784	0.26733896683673	0.25757334183673	9.5597895408163	9.568866212973		
749	16096	1497303785	0.22120650773196	0.39030283505155	9.5660035438144	9.5797820643572		
750	16096	1497303786	0.092228618421053	0.24354440789474	9.4574835526316	9.4626106508991		
751	16096	1497303787	0.33529974489796	0.30177774234694	9.5007174744898	9.5139937345778		
752	16096	1497303788	0.34681056701031	0.29856636597938	9.5193701675258	9.5329589609379		
753	16096	1497303789	0.56971153846154	0.39599072802198	9.4593063186813	9.4889751148109		
754	16096	1497303790	0.21559343434343	0.16587752525253	9.4997238005051	9.5055729816342		
755	16096	1497303791	0.061184210526316	0.23881578947368	9.5080592105263	9.5123506015148		
756	16096	1497303792	0.058878580729167	0.2994384765625	9.4831949869792	9.4889830966809		
757	16096	1497303793	0.10762117346939	0.39453125	9.4963329081633	9.5082406414208		
758	16096	1497303794	0.40326780913978	0.52528561827957	9.537592405914	9.5648363882933		
759	16096	1497303795	0.094441731770833	0.51228841145833	9.5042317708333	9.5228954844112		
760	16096	1497303796	0.32076009114583	0.60233561197917	9.5109456380208	9.5377665314096		
761	16096	1497303797	0.11772203947368	0.65489309210526	9.4783305921053	9.5037410544324		
762	16096	1497303798	0.19033717105263	0.61837993421053	9.359375	9.3823002010199		
763	16096	1497303799	0.23628656914894	0.59636801861702	9.3382646276596	9.3609480723906		
764	16096	1497303800	0.29260631443299	0.57953447164948	9.383174935567	9.4058904019743		
765	16096	1497303801	0.49047046703297	0.56168440934066	9.3640968406593	9.3957040035801		
766	16096	1497303802	0.72440592447917	0.55936686197917	9.4809977213542	9.5253824911984		
767	16096	1497303803	0.455322265625	0.6343994140625	9.5018717447917	9.5353123955488		
768	16096	1497303804	0.71821546052632	0.54399671052632	9.4878289473684	9.5331927000289		
769	16096	1497303805	0.7920425257732	0.54880798969072	9.4790995489691	9.5285450586984		
770	16096	1497303806	0.69401041666667	0.57134518678161	9.4848688936782	9.5275574784495		
771	16096	1497303807	0.70029496173469	0.57214604591837	9.4902742346939	9.5334537119708		
772	16096	1497303808	0.77407438858696	0.58046025815217	9.4831012228261	9.5328028251126		
773	16096	1497303809	0.73777173913043	0.56861413043478	9.4888756793478	9.5352735496104		
774	16096	1497303810	0.5999755859375	0.59818522135417	9.4961751302083	9.534098788319		
775	16096	1497303811	0.84982167119565	0.60470448369565	9.4848420516304	9.5444555114923		
776	16096	1497303812	1.5760056515957	0.564453125	9.4598570478723	9.6114277114791	s	s
777	16096	1497303813	0.77056146978022	0.36195054945055	9.4694368131868	9.5289108257353		
778	16096	1497303814	0.18055098684211	0.24605263157895	9.5017269736842	9.5101143688491		
779	16096	1497303815	0.075034340659341	0.22196943681319	9.4776356456044	9.4818540431947		
780	16096	1497303816	0.10139627659574	0.41776097074468	9.5085605053191	9.518681865541		
781	16096	1497303817	0.12923177083333	0.47501627604167	9.5086263020833	9.5216112180527		
782	16096	1497303818	0.11348902925532	0.55556017287234	9.4847074468085	9.5017842494571		
783	16096	1497303819	0.11955492424242	0.59962910353535	9.5072206439394	9.526997901884		
784	16096	1497303820	0.12487533244681	0.62192486702128	9.5107214095745	9.5319829713712		
785	16096	1497303821	0.12907247340426	0.60854388297872	9.5060671542553	9.5264804983099		
786	16096	1497303822	0.12034574468085	0.61631482712766	9.5049867021277	9.5257940256465		
787	16096	1497303823	0.12284342447917	0.62418619791667	9.5074869791667	9.5288605415881		
788	16096	1497303824	0.1148756377551	0.634765625	9.4984853316327	9.5205157577659		
789	16096	1497303825	0.1220079787234	0.64939328457447	9.5107214095745	9.5339327353652		
790	16096	1497303826	0.12167553191489	0.63663563829787	9.4998753324468	9.5221402669474		
791	16096	1497303827	0.12939967105263	0.62590460526316	9.5106496710526	9.5322600444711		
792	16096	1497303828	0.11821546052632	0.63935032894737	9.4927631578947	9.5151235849444		
793	16096	1497303829	0.11953125	0.65805921052632	9.50390625	9.5275421073534		
794	16096	1497303830	0.12084173387097	0.65616599462366	9.501470094086	9.5250100652033		
795	16096	1497303831	0.12777867268041	0.66450547680412	9.5118798324742	9.5360654392493		
796	16096	1497303832	0.13468424479167	0.6671142578125	9.5050455729167	9.5295781790035		
797	16096	1497303833	0.12	0.6500390625	9.5023046875	9.5254611739532		
798	16096	1497303834	0.17237903225806	0.9296875	9.4739583333333	9.5286054864081		
799	16096	1497303835	0.089561855670103	1.6068379510309	9.4801465850515	9.6246251753129		
800	16096	1497303836	1.1590169270833	0.50313313802083	9.3883463541667	9.504057670998		
801	16096	1497303837	1.4314778645833	0.3602294921875	9.3802490234375	9.4974280499712		
802	16096	1497303838	1.3679942255435	0.39512567934783	9.3930027173913	9.5005425618542		
803	16096	1497303839	1.3652549342105	0.40448190789474	9.3924753289474	9.500038183987		
804	16096	1497303840	1.3377496778351	0.4540512242268	9.3899403994845	9.4958436033884		
805	16096	1497303841	1.3215049342105	0.47039473684211	9.4044407894737	9.5085911112952		
806	16096	1497303842	1.3071808510638	0.48154920212766	9.4032995345745	9.5060293969878		
807	16096	1497303843	1.3036901595745	0.49688331117021	9.4085771276596	9.5116073715712		
808	16096	1497303844	1.3158933080808	0.52604166666667	9.4038431186869	9.5139250612451		
809	16096	1497303845	1.3559674202128	0.51728723404255	9.3946559175532	9.5070110050936		
810	16096	1497303846	1.6976151315789	0.52265625	9.3432154605263	9.5140243815893	s	d
811	16096	1497303847	2.2965049342105	0.42516447368421	9.2712171052632	9.5819085963377		
812	16096	1497303848	2.2507735148515	0.29907951732673	9.2476021039604	9.5282810701058		
813	16096	1497303849	1.7916666666667	0.0294189453125	9.3179931640625	9.4892238456918		
814	16096	1497303850	1.6738696808511	0.092378656914894	9.3246758643617	9.4779722879978		
815	16096	1497303851	1.7178730867347	0.16952327806122	9.3287228954082	9.4967812072418		
816	16096	1497303852	1.7269825268817	0.16288642473118	9.3249327956989	9.4854664537015		
817	16096	1497303853	1.711299935567	0.2512081185567	9.3332796391753	9.4924056736339		
818	16096	1497303854	1.7073102678571	0.30612244897959	9.3362165178571	9.4963746760039		
819	16096	1497303855	1.4774169921875	0.32389322916667	9.3741048177083	9.496137367013		
820	16096	1497303856	1.4520089285714	0.34040178571429	9.371412627551	9.4898763617657		
821	16096	1497303857	1.4363111413043	0.34035326086957	9.3768257472826	9.4925741739217		
822	16096	1497303858	1.4151387117347	0.36519451530612	9.3805006377551	9.4940521682746		
823	16096	1497303859	1.4193522135417	0.44527180989583	9.3846842447917	9.5031743114251		
824	16096	1497303860	1.4116796875	0.4787890625	9.3909765625	9.5105160204719		
825	16096	1497303861	1.34765625	0.46053890306122	9.3983976403061	9.509203407526		
826	16096	1497303862	1.171875	0.67120422979798	9.4028172348485	9.5022212588196		
827	16096	1497303863	1.1215367268041	0.79743878865979	9.4365335051546	9.5384867652209		
828	16096	1497303864	1.0297599871134	1.0747422680412	9.4789384664948	9.5971155936779		
829	16096	1497303865	1.0248766447368	0.9671875	9.4275082236842	9.5334647266201		
830	16096	1497303866	1.0222039473684	1.0081414473684	9.4671052631579	9.5760931134462		
831	16096	1497303867	1.0048828125	1.018310546875	9.4442952473958	9.5525480828628		
832	16096	1497303868	0.99093911082474	0.89642396907216	9.4707232603093	9.5654980976041		
833	16096	1497303869	1.0505819515306	0.63388871173469	9.4424426020408	9.5229406057492		
834	16096	1497303870	1.1004349226804	0.46585051546392	9.4326272551546	9.5086050694833		
835	16096	1497303871	1.1358235677083	0.44209798177083	9.4381917317708	9.5171668987762		
836	16096	1497303872	1.190118018617	0.40151263297872	9.4293134973404	9.5132806264521		
837	16096	1497303873	1.1708559782609	0.39504076086957	9.4265030570652	9.5090934135783		
838	16096	1497303874	0.9130078125	0.383828125	9.4480078125	9.5018249667854		
839	16096	1497303875	0.89477796052632	0.39412006578947	9.4614720394737	9.5135471063179		
840	16096	1497303876	0.990478515625	0.39005533854167	9.4283854166667	9.4898137027539		
841	16096	1497303877	1.1414930555556	0.40372474747475	9.4319365530303	9.5097527627183		
842	16096	1497303878	1.1016493055556	0.44934895833333	9.4131076388889	9.4883602596776		
843	16096	1497303879	1.0901285807292	0.47880045572917	9.4564615885417	9.5317924620552		
844	16096	1497303880	1.0788651315789	0.48236019736842	9.4294407894737	9.503483170442		
845	16096	1497303881	1.0771285076531	0.47947225765306	9.4248246173469	9.4986311264049		
846	16096	1497303882	1.0985019329897	0.52480670103093	9.4452722293814	9.5241664351377		
847	16096	1497303883	1.3240559895833	0.497314453125	9.4032796223958	9.5105622908387		
848	16096	1497303884	1.9424027423469	0.53451849489796	9.3354591836735	9.5530568155703		
849	16096	1497303885	2.4324661726804	0.54892880154639	9.2974790592784	9.6265240858593		
850	16096	1497303886	2.2554524739583	0.566650390625	9.3028157552083	9.5897867320489		
851	16096	1497303887	2.0823567708333	0.57466634114583	9.3386637369792	9.5856981712242		
852	16096	1497303888	1.995859375	0.526875	9.363046875	9.588771527878		
853	16096	1497303889	2.0433633207071	0.50414299242424	9.3188920454545	9.555152762487		
854	16096	1497303890	2.1236447704082	0.60578762755102	9.2672991071429	9.5295666996073		
855	16096	1497303891	2.0917338709677	0.55884576612903	9.2962869623656	9.5459228331898		
856	16096	1497303892	2.0982862903226	0.50525033602151	9.2844002016129	9.5323483757078		
857	16096	1497303893	2.0843592171717	0.49270044191919	9.290009469697	9.534700872391		
858	16096	1497303894	2.0597157579787	0.4619763962766	9.3218500664894	9.5586939573184		
859	16096	1497303895	2.0064697265625	0.45597330729167	9.2705891927083	9.4971393323392		
860	16096	1497303896	1.9546712239583	0.394287109375	9.2874755859375	9.4996863609983		
861	16096	1497303897	1.9325436827957	0.42439516129032	9.2918346774194	9.5008642652911		
862	16096	1497303898	1.835300611413	0.4419582201087	9.3497792119565	9.540911739378		
863	16096	1497303899	1.7677521658416	0.45246751237624	9.3586014851485	9.5380407252807		
864	16096	1497303900	1.7792758736559	0.45190692204301	9.2799479166667	9.4634914609772		
865	16096	1497303901	1.8167317708333	0.47721354166667	9.2819010416667	9.4772343586598		
866	16096	1497303902	1.7505918560606	0.55839646464646	9.3787089646465	9.5665793024011		
867	16096	1497303903	1.4057154605263	0.49975328947368	9.4258634868421	9.5484731310236		
868	16096	1497303904	1.1575390625	0.45234375	9.418046875	9.5025770505876		
869	16096	1497303905	1.147216796875	0.533203125	9.4364827473958	9.524225219442		
870	16096	1497303906	1.1158040364583	0.47859700520833	9.42041015625	9.4990525145309		
871	16096	1497303907	1.1132405598958	0.531005859375	9.4400634765625	9.5212565209446		
872	16096	1497303908	1.0964095744681	0.51304853723404	9.4268617021277	9.5059216847129		
873	16096	1497303909	0.59324721534653	0.5105198019802	9.4947787747525	9.5298611609748		
874	16096	1497303910	0.51468912760417	0.51021321614583	9.5364990234375	9.5680035248351		
875	16096	1497303911	0.5029920212766	0.50058178191489	9.503241356383	9.5323923035153		
876	16096	1497303912	0.77091471354167	0.55216471354167	9.4770914713542	9.5262613419524		
877	16096	1497303913	0.53719075520833	0.54243977864583	9.5295817057292	9.5621133655585		
878	16096	1497303914	0.55823131443299	0.53233730670103	9.5126449742268	9.5443605175931		
879	16096	1497303915	0.8175048828125	0.55716959635417	9.4783935546875	9.5315171732172		
880	16096	1497303916	1.2370328608247	0.59773679123711	9.4195795747423	9.5201501241159		
881	16096	1497303917	1.3692413015464	0.62238240979381	9.3983166881443	9.5183302373668		
882	16096	1497303918	1.3040771484375	0.63041178385417	9.3969319661458	9.5083934917485		
883	16096	1497303919	1.3154397551546	0.78278028350515	9.3923969072165	9.5173095083365		
884	16096	1497303920	1.301452020202	1.2586410984848	9.4126025883838	9.5864601471689		
885	16096	1497303921	1.2633056640625	1.3439534505208	9.38525390625	9.56591311425		
886	16096	1497303922	1.239006121134	1.3649323453608	9.3499919458763	9.531255365974		
887	16096	1497303923	1.2633246527778	1.4446614583333	9.3828993055556	9.5782250183101		
888	16096	1497303924	1.2502391581633	1.4030213647959	9.4070073341837	9.5933189461527		
889	16096	1497303925	1.255126953125	1.246826171875	9.3905029296875	9.556652824685		
890	16096	1497303926	1.2368861607143	0.90716677295918	9.4070471938776	9.5325257635569		
891	16096	1497303927	1.1850328947368	0.64395559210526	9.4392269736842	9.5369205680726		
892	16096	1497303928	0.88642785904255	0.57779255319149	9.4464760638298	9.5070831151199		
893	16096	1497303929	1.081640625	0.630390625	9.440390625	9.5233292590343		
894	16096	1497303930	1.0744265292553	0.62504155585106	9.4343417553191	9.516451629531		
895	16096	1497303931	1.0614013671875	0.60294596354167	9.4027099609375	9.4818361083305		
896	16096	1497303932	1.0716677295918	0.6569674744898	9.4751275510204	9.5584287417589		
897	16096	1497303933	1.0928141276042	0.72135416666667	9.4523518880208	9.5429359469432		
898	16096	1497303934	1.0746572066327	0.71297034438776	9.4235889668367	9.5117357847513		
899	16096	1497303935	0.46492866847826	0.63998811141304	9.5203804347826	9.5555399079527		
900	16096	1497303936	0.44013073979592	0.62492028061224	9.487962372449	9.519478587204		
901	16096	1497303937	0.31870888157895	0.57878289473684	9.5262335526316	9.549425442074		
902	16096	1497303938	0.52888131648936	0.60625831117021	9.49609375	9.5305367356814		
903	16096	1497303939	0.43375318877551	0.60542889030612	9.5176179846939	9.5469215996128		
904	16096	1497303940	0.22929267473118	0.54305275537634	9.5346522177419	9.5538158043837		
905	16096	1497303941	0.33080808080808	0.53969381313131	9.5147964015152	9.5360875159239		
906	16096	1497303942	0.19306216032609	0.54381793478261	9.5414402173913	9.5596891616667		
907	16096	1497303943	0.144287109375	0.51448567708333	9.5869954427083	9.6026527526358		
908	16096	1497303944	0.14493815104167	0.54707845052083	9.5848795572917	9.6022443068922		
909	16096	1497303945	1.0069633152174	0.55086616847826	9.4428923233696	9.522940536017		
910	16096	1497303946	0.95103092783505	0.15721649484536	9.424693943299	9.4779358883494	s	s
911	16096	1497303947	0.82804188829787	0.16988031914894	9.4500083111702	9.49347549897		
912	16096	1497303948	0.84913105867347	0.099689094387755	9.4590640943878	9.4992193328917		
913	16096	1497303949	0.8213625672043	0.22916666666667	9.4813508064516	9.5254527122054		
914	16096	1497303950	1.0072244623656	0.46547379032258	9.3985635080645	9.4665231896188		
915	16096	1497303951	1.0635067654639	0.56515786082474	9.403068621134	9.4800247669195		
916	16096	1497303952	1.115078125	0.6619921875	9.41015625	9.4993639475296		
917	16096	1497303953	1.1681332236842	0.70752467105263	9.3935032894737	9.4925966560604		
918	16096	1497303954	1.1658935546875	0.72798665364583	9.3966471354167	9.4967328762505		
919	16096	1497303955	1.248046875	0.75062333776596	9.3911652260638	9.5049602632992		
920	16096	1497303956	1.6724039713542	0.68770345052083	9.3366292317708	9.5144650077349		
921	16096	1497303957	2.3426513671875	0.47733561197917	9.27587890625	9.5880422959931		
922	16096	1497303958	2.3281648596939	0.16493941326531	9.278659119898	9.5718187713626	s	d
923	16096	1497303959	2.0402462121212	0.15147569444444	9.3081202651515	9.5369613371664		
924	16096	1497303960	1.9924693943299	0.085212628865979	9.3259503865979	9.5389780598416		
925	16096	1497303961	1.7800575657895	0.14580592105263	9.3287006578947	9.4995674647191		
926	16096	1497303962	1.7922911352041	0.0859375	9.3340242346939	9.5061516177145		
927	16096	1497303963	1.6536865234375	0.14119466145833	9.3173828125	9.4668844876454		
928	16096	1497303964	1.49365234375	0.12784830729167	9.3714599609375	9.4913999944901		
929	16096	1497303965	1.1812657828283	0.11762152777778	9.4088936237374	9.4856953238648		
930	16096	1497303966	1.0388997395833	0.14152018229167	9.3655192057292	9.4249031434858		
931	16096	1497303967	1.3639914772727	0.12484217171717	9.3465119949495	9.4474124003757		
932	16096	1497303968	1.4181660353535	0.15214646464646	9.3739346590909	9.4824353758648		
933	16096	1497303969	1.3829320790816	0.13560267857143	9.3985570790816	9.5019543438666		
934	16096	1497303970	1.2073567708333	0.129638671875	9.3795572916667	9.4590616198629		
935	16096	1497303971	0.94572368421053	0.14325657894737	9.4000822368421	9.4493474827698		
936	16096	1497303972	0.93941326530612	0.12950414540816	9.4073660714286	9.4563375847625		
937	16096	1497303973	0.61900252525253	0.23338857323232	9.4199416035354	9.4438807297335		
938	16096	1497303974	0.59614158163265	0.2210618622449	9.4390146683673	9.4614170933241		
939	16096	1497303975	0.60022095959596	0.21152935606061	9.4162326388889	9.4392242386166		
940	16096	1497303976	0.56505102040816	0.26419005102041	9.4042171556122	9.4258265481262		
941	16096	1497303977	0.53326353092784	0.15145779639175	9.4921472293814	9.510544543803		
942	16096	1497303978	0.10385792525773	0.12906733247423	9.4830057989691	9.4852498007676		
943	16096	1497303979	0.13453125	0.138203125	9.54078125	9.544069563586		
944	16096	1497303980	0.22297841494845	0.063547036082474	9.4617831829897	9.466640168224		
945	16096	1497303981	0.3854830994898	0.062619579081633	9.4310427295918	9.4407013326376		
946	16096	1497303982	0.31876627604167	0.11726888020833	9.413330078125	9.4221256549213		
947	16096	1497303983	0.49700126262626	0.16903409090909	9.4270438762626	9.4424057122863		
948	16096	1497303984	0.35341061827957	0.11760752688172	9.4576192876344	9.4675312274066		
949	16096	1497303985	0.22391887626263	0.16934974747475	9.5186631944444	9.5247185438877		
950	16096	1497303986	0.20152889784946	0.42036290322581	9.4905493951613	9.5035579513692		
951	16096	1497303987	0.13410115979381	0.43162048969072	9.4987918814433	9.5108054218999		
952	16096	1497303988	0.13015463917526	0.34584407216495	9.4838514819588	9.4930597148499		
953	16096	1497303989	0.095827792553191	0.28889627659574	9.4945977393617	9.5005523888664		
954	16096	1497303990	0.42171875	0.28734375	9.454609375	9.4704729572206		
955	16096	1497303991	0.51921875	0.299765625	9.476484375	9.4964019870271		
956	16096	1497303992	0.26143973214286	0.32286352040816	9.4839365433673	9.4963305574242		
957	16096	1497303993	0.57055412371134	0.057667525773196	9.5293170103093	9.5491233562182		
958	16096	1497303994	0.28777384020619	0.15576675257732	9.4920666881443	9.5001934232996		
959	16096	1497303995	0.32916135204082	0.15047034438776	9.4972496811224	9.505860927024		
960	16096	1497303996	0.13663903061224	0.13946906887755	9.4862085459184	9.4888095736627		
961	16096	1497303997	0.20671559343434	0.12851167929293	9.4903724747475	9.4949903120694		
962	16096	1497303998	0.46492513020833	0.13057454427083	9.5047200520833	9.5172776743595		
963	16096	1497303999	0.19759114583333	0.13395182291667	9.4798990885417	9.4849419647593		
964	16096	1497304000	0.18829719387755	0.12017697704082	9.5001195790816	9.5030914198245		
965	16096	1497304001	0.19231085526316	0.18050986842105	9.4808388157895	9.4849712211557		
966	16096	1497304002	0.12032023514851	0.11606590346535	9.4915686881188	9.4939117510192		
967	16096	1497304003	0.098340850515464	0.19482925257732	9.467662693299	9.4708539712102		
968	16096	1497304004	0.13519736842105	0.2078125	9.4720805921053	9.4756381104148		
969	16096	1497304005	0.30744243421053	0.20160361842105	9.4887746710526	9.4966128655199		
970	16096	1497304006	0.72971141581633	0.19965720663265	9.5036272321429	9.5347110322309		
971	16096	1497304007	0.434326171875	0.17635091145833	9.4608968098958	9.476141594365	s	s
972	16096	1497304008	0.37869847074468	0.15812001329787	9.4454787234043	9.4586589259053		
973	16096	1497304009	0.38185586734694	0.067083864795918	9.4555963010204	9.4648402967453		
974	16096	1497304010	0.37930484693878	0.034677933673469	9.4636878188776	9.4716401910239		
975	16096	1497304011	0.36459661989796	0.048230229591837	9.4526466836735	9.4599874310611		
976	16096	1497304012	0.34507893041237	0.08629993556701	9.4486549613402	9.4554840039976		
977	16096	1497304013	0.34370844414894	0.096658909574468	9.4474734042553	9.4543238146193		
978	16096	1497304014	0.33460856958763	0.093347293814433	9.4457957474227	9.4523468013422		
979	16096	1497304015	0.32791498655914	0.096900201612903	9.4902553763441	9.4965278160804		
980	16096	1497304016	0.33700284090909	0.088028724747475	9.4429056186869	9.4495075685305		
981	16096	1497304017	0.33669483418367	0.079400510204082	9.4390545280612	9.4455378419567		
982	16096	1497304018	0.33805006377551	0.079599808673469	9.4387755102041	9.4453338974436		
983	16096	1497304019	0.33883698453608	0.076836340206186	9.4466011597938	9.4531100257585		
984	16096	1497304020	0.32491048177083	0.0797119140625	9.4394124348958	9.4455311667678		
985	16096	1497304021	0.32530605670103	0.080460695876289	9.4411243556701	9.447235950755		
986	16096	1497304022	0.32441804846939	0.080636160714286	9.4444355867347	9.4505155456149		
987	16096	1497304023	0.33001771907216	0.076312822164948	9.4344394329897	9.4408685109204		
988	16096	1497304024	0.32743326822917	0.10957845052083	9.438720703125	9.4453531419807		
989	16096	1497304025	0.32576497395833	0.17582194010417	9.4293212890625	9.4382339869932	s	d
990	16096	1497304026	0.36293402777778	0.22630208333333	9.4294270833333	9.4439606638766		
991	16096	1497304027	0.31689453125	0.21248372395833	9.436767578125	9.4446767457976		
992	16096	1497304028	0.55959109042553	0.22768450797872	9.4293550531915	9.4516764787576		
993	16096	1497304029	1.23390625	0.229296875	9.3678125	9.4558531876514		
994	16096	1497304030	1.6912854381443	0.25217461340206	9.3498308634021	9.5052886200081		
995	16096	1497304031	1.2919034090909	0.32019412878788	9.3599668560606	9.4552885361673		
996	16096	1497304032	1.5008285984848	0.4028961489899	9.3590988005051	9.4880512314129		
997	16096	1497304033	1.5914143041237	0.47148840206186	9.3129429768041	9.4605067457708		
998	16096	1497304034	1.5834748641304	0.56920855978261	9.3208644701087	9.4722945580928		
999	16096	1497304035	1.5062978316327	0.69005102040816	9.3162866709184	9.4645801487893		
1000	16096	1497304036	0.88257334183673	0.90250318877551	9.2997847576531	9.3878034388794		
1001	16096	1497304037	0.45505798969072	0.8503543814433	9.3783021907216	9.4285482589607		
1002	16096	1497304038	0.48780293367347	0.94327965561224	9.3126195790816	9.3740987177025		
1003	16096	1497304039	0.48102678571429	1.0140306122449	9.3530373086735	9.4209522413409		
1004	16096	1497304040	0.51830808080808	1.1119791666667	9.3409090909091	9.4226402495301		
1005	16096	1497304041	0.42434630102041	1.181321747449	9.3075573979592	9.3942233845917		
1006	16096	1497304042	0.40621054292929	0.91500946969697	9.3383443813131	9.3935888547353		
1007	16096	1497304043	0.44783775252525	0.53476167929293	9.3890861742424	9.4168335375734		
1008	16096	1497304044	0.66256313131313	0.31238162878788	9.4316208964646	9.4630253700907		
1009	16096	1497304045	0.74528833762887	0.24448292525773	9.4174855025773	9.4525805933738		
1010	16096	1497304046	0.83310746173469	0.25223214285714	9.4081234056122	9.4505326303225		
1011	16096	1497304047	1.166334502551	0.27933673469388	9.3571827168367	9.4362912625989		
1012	16096	1497304048	0.86453125	0.268828125	9.3942578125	9.4392199174486		
1013	16096	1497304049	0.74374202806122	0.22947225765306	9.4262595663265	9.4589541519561		
1014	16096	1497304050	0.82364908854167	0.22770182291667	9.4147542317708	9.4551588224164		
1015	16096	1497304051	0.69292763157895	0.26677631578947	9.4054276315789	9.4363292067297		
1016	16096	1497304052	0.67976804123711	0.21234697164948	9.3948131443299	9.4239817529602		
1017	16096	1497304053	0.73667042525773	0.24718105670103	9.4517155283505	9.4864390650702		
1018	16096	1497304054	0.63249362244898	0.21950733418367	9.452487244898	9.4771727502505		
1019	16096	1497304055	0.63186553030303	0.17735953282828	9.4499289772727	9.4737273974956		
1020	16096	1497304056	0.58072916666667	0.20284880050505	9.4416824494949	9.4635092829906		
1021	16096	1497304057	0.51566527061856	0.34048807989691	9.340206185567	9.3658898730505		
1022	16096	1497304058	0.53424873737374	0.29782196969697	9.4934895833333	9.5187427880672		
1023	16096	1497304059	0.27671875	0.2334375	9.42453125	9.4352613452707		
1024	16096	1497304060	0.23110650510204	0.24625318877551	9.3490911989796	9.3585217404421		
1025	16096	1497304061	0.23868395618557	0.38800740979381	9.3734294458763	9.3891559974597		
1026	16096	1497304062	0.14760044642857	0.23345822704082	9.3145328443878	9.3206478707429		
1027	16096	1497304063	0.49453125	0.4177734375	9.3969921875	9.4254295031683		
1028	16096	1497304064	0.72401147959184	0.58071588010204	9.3530373086735	9.4073290690184		
1029	16096	1497304065	0.10004783163265	0.48226243622449	9.373365752551	9.3883020973605		
1030	16096	1497304066	0.39644451530612	0.61383928571429	9.3283242984694	9.3627226512083		
1031	16096	1497304067	1.0868542729592	0.55935108418367	9.3953284438776	9.477470786368		
1032	16096	1497304068	0.70328125	0.4430078125	9.424296875	9.4652702908268		
1033	16096	1497304069	0.10917570153061	0.25051817602041	9.465481505102	9.4706582246264		
1034	16096	1497304070	0.56716358418367	0.19810267857143	9.4723772321429	9.4959704170205		
1035	16096	1497304071	0.85411352040816	0.205078125	9.4733737244898	9.5175894995735		
1036	16096	1497304072	0.1208118556701	0.1691768685567	9.4493395618557	9.4528654153341		
1037	16096	1497304073	0.024765625	0.1831640625	9.4362109375	9.4384036019186		
1038	16096	1497304074	0.42154605263158	0.24601151315789	9.4522203947368	9.4666870267523		
1039	16096	1497304075	0.1129993556701	0.21266913659794	9.4287612757732	9.4331393578913		
1040	16096	1497304076	0.08382493622449	0.24294483418367	9.435546875	9.4398803435068		
1041	16096	1497304077	0.038001019021739	0.19675611413043	9.4594938858696	9.4620677195894		
1042	16096	1497304078	0.0770703125	0.2134765625	9.6155078125	9.6187515930008		
1043	16096	1497304079	0.37440557065217	0.20189368206522	9.6456351902174	9.6564682620103		
1044	16096	1497304080	0.18961256377551	0.14692283163265	9.6400271045918	9.6433025891308		
1045	16096	1497304081	0.16330516581633	0.2125318877551	9.5988520408163	9.603134268197		
1046	16096	1497304082	0.096042798913043	0.18720278532609	9.4523182744565	9.4550284143209		
1047	16096	1497304083	0.17570153061224	0.18391262755102	9.4641661352041	9.4678993709688		
1048	16096	1497304084	0.34702620967742	0.19077620967742	9.491935483871	9.5006955559699		
1049	16096	1497304085	0.45838647959184	0.17757493622449	9.4743303571429	9.487460018634		
1050	16096	1497304086	0.15733730670103	0.18045264175258	9.4585212628866	9.4624852961648		
1051	16096	1497304087	0.25351167929293	0.19543087121212	9.4768386994949	9.4832093787843		
1052	16096	1497304088	0.42175418814433	0.17868073453608	9.4756362757732	9.4881083267684		
1053	16096	1497304089	1.046622983871	0.18447580645161	9.5186071908602	9.5811783307229	s	s
1054	16096	1497304090	1.5591227213542	1.7672932942708	9.1880696614583	9.8081017385481		
1055	16096	1497304091	3.6868421052632	5.5089226973684	7.4449835526316	10.988649749077		
1056	16096	1497304092	1.4934231505102	7.6224489795918	3.4866868622449	8.7554878707932		
1057	16096	1497304093	3.0287828947368	7.4905016447368	4.8324013157895	9.838443113714		
1058	16096	1497304094	4.5126139322917	8.1601969401042	1.9851888020833	9.7481035348549		
1059	16096	1497304095	5.7299342105263	7.2219572368421	2.9627467105263	10.029120025387		
1060	16096	1497304096	4.1654296875	7.4907421875	4.262109375	9.8561434511193		
1061	16096	1497304097	2.9838763297872	8.6040558510638	0.98915392287234	9.2612688834205		
1062	16096	1497304098	6.8408505154639	6.5447406572165	2.2890222293814	10.075946129037		
1063	16096	1497304099	9.0330981182796	4.7649529569892	2.2626428091398	10.743937249338		
1064	16096	1497304100	2.8310746173469	6.9576291454082	4.3572225765306	9.4678473350768		
1065	16096	1497304101	2.2665816326531	2.0919961734694	8.7433832908163	9.5548811773019		
1066	16096	1497304102	0.85259885204082	0.73696588010204	9.3839285714286	9.486985488698		
1067	16096	1497304103	0.234619140625	0.55598958333333	9.5731201171875	9.5985836767018		
1068	16096	1497304104	0.64976643041237	0.70687016752577	9.3834568298969	9.4535397365933	s	l
1069	16096	1497304105	0.39078282828283	0.51211332070707	9.4542692550505	9.4848916394402		
1070	16096	1497304106	0.38001644736842	0.16118421052632	9.4365953947368	9.4478691907734		
