n	Session	accelerometer.seconds.Unix	accelerometer.accx.Average	accelerometer.accy.Average	accelerometer.accz.Average	accelerometer.accx.Average-All	events.type	events.description
1	16095	1497298144	0.077880859375	2.5877685546875	8.984375	9.3516652314395		
2	16095	1497298145	0.1887890625	2.3271875	9.0670703125	9.3727843218318		
3	16095	1497298146	1.2889030612245	2.9009088010204	8.7199856505102	9.3463337339148		
4	16095	1497298147	0.70545296717172	2.3414220328283	8.9660669191919	9.3191400339373		
5	16095	1497298148	0.52734375	2.2279177295918	9.0037468112245	9.3112935980682		
6	16095	1497298149	0.8383984375	2.21203125	9.004140625	9.3236750001713		
7	16095	1497298150	0.6005859375	2.36203125	9.007265625	9.3463078375859		
8	16095	1497298151	0.48375	1.2532421875	9.2903515625	9.4265392889992		
9	16095	1497298152	1.21203125	0.355	9.32953125	9.437953599174		
10	16095	1497298153	1.3140302835052	0.41829091494845	9.3140705541237	9.4284815589485		
11	16095	1497298154	1.1465830176768	0.61395202020202	9.3730271464646	9.4657964713764		
12	16095	1497298155	1.1270123106061	0.5134154040404	9.3498658459596	9.4321821277876		
13	16095	1497298156	1.0609611742424	0.41698232323232	9.3721985479798	9.4417301501217		
14	16095	1497298157	0.91829091494845	0.35562983247423	9.4126932989691	9.4672879836045		
15	16095	1497298158	0.2921875	0.57409539473684	9.3847861842105	9.408040372241		
16	16095	1497298159	0.2512890625	0.4199609375	9.4302734375	9.4433126292907		
17	16095	1497298160	0.3459765625	0.3862109375	9.4580078125	9.4789040166632		
18	16095	1497298161	0.38443023989899	0.16832386363636	9.4331991792929	9.4440939524697		
19	16095	1497298162	0.3334765625	0.0900390625	9.4737109375	9.4815994365945		
20	16095	1497298163	0.35669191919192	0.18477746212121	9.4590041035354	9.4682225030518		
21	16095	1497298164	0.35710299744898	0.17948820153061	9.4714604591837	9.4800794206207		
22	16095	1497298165	0.25116784793814	0.13438305412371	9.4625483247423	9.467120298851		
23	16095	1497298166	0.2175390625	0.1971875	9.471953125	9.4767836189999		
24	16095	1497298167	0.20754419191919	0.26203440656566	9.4666193181818	9.4727520093858		
25	16095	1497298168	0.19625946969697	0.24739583333333	9.4919507575758	9.4978324930568		
26	16095	1497298169	0.14537693298969	0.19615818298969	9.4571520618557	9.4604978333216		
27	16095	1497298170	0.12846779336735	0.20535714285714	9.4659598214286	9.4691548694251		
28	16095	1497298171	0.25125	0.4875	9.4366796875	9.4592964004946		
29	16095	1497298172	0.365078125	0.6816796875	9.4884375	9.5280855698917		
30	16095	1497298173	0.5384375	0.4980078125	9.549375	9.5857542300703		
31	16095	1497298174	0.7016015625	0.5097265625	9.5602734375	9.6191766208026		
32	16095	1497298175	0.74475220959596	0.79300820707071	9.4546638257576	9.533265076261		
33	16095	1497298176	0.3852734375	0.4705859375	9.503046875	9.5277220467186		
34	16095	1497298177	0.7732421875	0.5080859375	9.5375	9.5960573928964		
35	16095	1497298178	0.4447265625	0.3943359375	9.419765625	9.4483215100079		
36	16095	1497298179	0.241953125	0.2466015625	9.503671875	9.5144920758747		
37	16095	1497298180	0.53077651515152	0.30196496212121	9.4473248106061	9.484417690016		
38	16095	1497298181	0.36221590909091	0.16867897727273	9.4524147727273	9.4641843734061		
39	16095	1497298182	0.569296875	0.5264453125	9.467578125	9.5076624640904		
40	16095	1497298183	0.66984375	0.47359375	9.5005859375	9.5424363235418		
41	16095	1497298184	0.5061328125	0.4228515625	9.498046875	9.5247703428293		
42	16095	1497298185	0.56979955808081	0.47924558080808	9.4440498737374	9.4857213348242		
43	16095	1497298186	0.5444587628866	0.37765786082474	9.4693540592784	9.4936912237588		
44	16095	1497298187	0.5236328125	0.3423046875	9.50890625	9.5336679399572		
45	16095	1497298188	0.34781407828283	1.6200678661616	9.1308791035354	9.2845373636296		
46	16095	1497298189	0.45033482142857	1.5595503826531	9.2094626913265	9.3518974557294		
47	16095	1497298190	0.49202806122449	1.2688536352041	9.1797672193878	9.2839507321118		
48	16095	1497298191	0.52619949494949	0.12361900252525	9.5561079545455	9.5732086215876		
49	16095	1497298192	0.55958017676768	0.11201862373737	9.4411300505051	9.4589042973447		
50	16095	1497298193	0.50757334183673	0.19706632653061	9.4316007653061	9.4475377814551		
51	16095	1497298194	0.4612890625	0.273828125	9.4425390625	9.4589592474286		
52	16095	1497298195	0.2619140625	0.2255859375	9.4342578125	9.4430000352293		
53	16095	1497298196	0.23287563131313	0.33132102272727	9.4241240530303	9.4336850456608		
54	16095	1497298197	0.2365234375	0.36234375	9.4555078125	9.4660802841661		
55	16095	1497298198	0.1985012755102	0.66509885204082	9.3550302933673	9.3880432640794		
56	16095	1497298199	0.1123550257732	0.66172680412371	9.3807586984536	9.4059114192374		
57	16095	1497298200	0.15023118622449	0.63069993622449	9.3957270408163	9.418690478935		
58	16095	1497298201	0.18438289141414	0.63948074494949	9.4043166035354	9.4293063701854		
59	16095	1497298202	0.1466015625	0.6742578125	9.3767578125	9.4033489148908		
60	16095	1497298203	0.2394921875	0.66171875	9.3862109375	9.4162222567776		
61	16095	1497298204	0.26838699494949	0.52158301767677	9.4258601641414	9.4481013333991		
62	16095	1497298205	0.19256218112245	0.41454081632653	9.4194435586735	9.4343304007483		
63	16095	1497298206	0.11126771907216	0.39139014175258	9.4444265463918	9.453895598574		
64	16095	1497298207	0.052479619565217	0.36124320652174	9.4375	9.4448485736313		
65	16095	1497298208	0.10953443877551	0.36236447704082	9.445631377551	9.4535262213668		
66	16095	1497298209	0.06103515625	0.3670654296875	9.4295247395833	9.4371081338297		
67	16095	1497298210	0.0301953125	0.310546875	9.4427734375	9.4481193814438		
68	16095	1497298211	0.031762941919192	0.2494476010101	9.4504419191919	9.4539058362692		
69	16095	1497298212	0.2791015625	0.3019921875	9.4352734375	9.4488590040801		
70	16095	1497298213	0.8028125	0.351015625	9.5296484375	9.5866334908864		
71	16095	1497298214	0.7778961489899	0.74964488636364	9.3332149621212	9.4184769131954		
72	16095	1497298215	0.741484375	0.38265625	9.532265625	9.5795921312882		
73	16095	1497298216	0.18484375	0.1722265625	9.4994921875	9.5056665458249		
74	16095	1497298217	0.2444365530303	0.051136363636364	9.4453125	9.4495912656464		
75	16095	1497298218	0.2591796875	0.0866796875	9.4387890625	9.4447800263047		
76	16095	1497298219	0.56115845959596	0.64654356060606	9.6697048611111	9.728554988736		
77	16095	1497298220	0.7950390625	0.9423046875	9.5137109375	9.631518994917		
78	16095	1497298221	0.8205859375	0.590234375	9.07890625	9.1622999068607		
79	16095	1497298222	1.0853125	0.764375	9.8055859375	9.9227718900543		
80	16095	1497298223	0.556875	0.7944140625	9.35859375	9.4409811157087		
81	16095	1497298224	0.66429924242424	0.53357796717172	9.4283065025253	9.4814038309025		
82	16095	1497298225	0.86399147727273	0.41595643939394	9.5319602272727	9.6097885858114		
83	16095	1497298226	0.4180078125	0.4309375	9.397890625	9.4271044938733		
84	16095	1497298227	0.6726171875	0.5534765625	9.500625	9.5587600981116		
85	16095	1497298228	0.68702651515152	0.8660827020202	9.3650173611111	9.4610529929019		
86	16095	1497298229	0.38222064393939	0.78590593434343	9.2648753156566	9.3183948928379		
87	16095	1497298230	0.66046875	0.7050390625	9.494375	9.5629322809749		
88	16095	1497298231	0.3643860479798	0.59690656565657	9.4633443813131	9.5054293975519		
89	16095	1497298232	1.1236190025253	0.6618529040404	9.3989898989899	9.5165149977097	s	e
90	16095	1497298233	0.68532538659794	0.66953930412371	9.4081829896907	9.4801870689665		
91	16095	1497298234	0.65258049242424	0.42929292929293	9.4136284722222	9.4725917690032		
92	16095	1497298235	0.96078125	0.528125	9.41890625	9.5368769342746		
93	16095	1497298236	0.97660235969388	0.80253507653061	9.5747767857143	9.7164716670972		
94	16095	1497298237	0.95640625	1.8133203125	9.325625	9.6370216166742		
95	16095	1497298238	1.430625	1.48875	9.4854296875	9.767897603638		
96	16095	1497298239	1.054609375	0.6957421875	9.5030078125	9.6089195751288		
97	16095	1497298240	0.76487531565657	0.82122001262626	9.3874684343434	9.4626974661285	s	d
98	16095	1497298241	0.3361328125	0.330390625	9.5091015625	9.5317902538788		
99	16095	1497298242	0.68375157828283	0.51866319444444	9.4618450126263	9.5391601156304		
100	16095	1497298243	0.8136047979798	0.73425662878788	9.6519097222222	9.7518863904639		
101	16095	1497298244	1.264296875	1.1089453125	8.9640625	9.2166739607514		
102	16095	1497298245	2.3419921875	1.9086328125	10.3423828125	11.150863487012		
103	16095	1497298246	0.28342013888889	0.51081123737374	9.6020754419192	9.621778818308		
104	16095	1497298247	0.14003314393939	0.54419191919192	9.5928819444444	9.6110539218971		
105	16095	1497298248	0.269921875	0.849765625	9.47921875	9.5727496281018		
106	16095	1497298249	0.190078125	0.5618359375	9.483203125	9.5051685554066		
107	16095	1497298250	0.165	0.5323828125	9.532265625	9.5502112581163		
108	16095	1497298251	0.2811328125	0.5612890625	9.508203125	9.5312032232809		
109	16095	1497298252	0.5651953125	0.62609375	9.5235546875	9.5623754394691		
110	16095	1497298253	0.5789453125	0.771484375	9.5375390625	9.601385859985		
111	16095	1497298254	0.4376171875	0.9076171875	9.507890625	9.5636297885897		
112	16095	1497298255	0.4122265625	0.8879296875	9.49515625	9.548067537853		
113	16095	1497298256	0.34833386479592	0.87579719387755	9.5176179846939	9.5667333773049		
114	16095	1497298257	0.39019097222222	0.8962279040404	9.4498500631313	9.5047364209711		
115	16095	1497298258	0.38186553030303	0.81009311868687	9.3806029040404	9.4284875258424		
116	16095	1497298259	0.33067602040816	0.75203284438776	9.472018494898	9.5144737532054		
117	16095	1497298260	0.31234375	0.6819140625	9.4580859375	9.4942323828191		
118	16095	1497298261	0.28637941919192	0.68098958333333	9.3980429292929	9.4347852947737		
119	16095	1497298262	0.21192392676768	0.60886205808081	9.4690261994949	9.4938213516194		
120	16095	1497298263	0.1961328125	0.633359375	9.391484375	9.4180309641069		
121	16095	1497298264	0.18450126262626	0.72048611111111	9.448547979798	9.4812522423801		
122	16095	1497298265	0.19815340909091	0.80405618686869	9.4328046085859	9.4723730398945		
123	16095	1497298266	0.18611900252525	0.78136837121212	9.4043166035354	9.4430993723428		
124	16095	1497298267	0.20921875	0.8030078125	9.364296875	9.4043708882658		
125	16095	1497298268	0.16904496173469	0.83960459183673	9.6245216836735	9.6663283153929		
126	16095	1497298269	0.19156568877551	0.87069515306122	9.4631696428571	9.5125624527625		
127	16095	1497298270	0.2582421875	0.91171875	9.5896875	9.6530951646579		
128	16095	1497298271	0.1783203125	0.8946875	9.5035546875	9.5539447120766		
129	16095	1497298272	0.9799609375	0.979375	9.4925	9.6311937181153		
130	16095	1497298273	1.891015625	1.019765625	9.3165625	9.572885455507		
131	16095	1497298274	1.930006377551	0.92470503826531	9.3243383290816	9.5799453895671		
132	16095	1497298275	1.1112890625	0.878671875	9.385390625	9.5159340611622		
133	16095	1497298276	1.2879577020202	0.83187342171717	9.4359611742424	9.5754748677741		
134	16095	1497298277	1.2765234375	0.7477734375	9.3776171875	9.5022992001578		
135	16095	1497298278	0.8905859375	0.7443359375	9.4231640625	9.5040141553572		
136	16095	1497298279	0.654375	0.7716015625	9.4276953125	9.4919627300671		
137	16095	1497298280	0.5619140625	0.7821484375	9.4207421875	9.4743857062406		
138	16095	1497298281	0.4664453125	0.8398828125	9.50171875	9.5558370875713		
139	16095	1497298282	0.46938131313131	0.77765940656566	9.4433396464646	9.4903842269585		
140	16095	1497298283	0.5065234375	0.36171875	9.426015625	9.4510261773995		
141	16095	1497298284	0.50536616161616	0.34659090909091	9.4692629419192	9.4961107342171		
142	16095	1497298285	0.52921875	0.324765625	9.4962890625	9.5245867727286		
143	16095	1497298286	0.61375956632653	0.31748246173469	9.4271364795918	9.4576904556742		
144	16095	1497298287	0.8071875	0.3435546875	9.4413671875	9.4899042917684		
145	16095	1497298288	1.1761758207071	0.40431660353535	9.4351720328283	9.5220679724842		
146	16095	1497298289	1.0626972853535	0.45935921717172	9.4046717171717	9.4825532225542		
147	16095	1497298290	1.1596484375	0.4853515625	9.425234375	9.515384965067		
148	16095	1497298291	1.3048058712121	0.56072443181818	9.3927556818182	9.5040899876266		
149	16095	1497298292	0.99968434343434	0.6227509469697	9.4206518308081	9.4975137480013		
150	16095	1497298293	1.2742660984848	0.66066919191919	9.417297979798	9.5297647045718		
151	16095	1497298294	1.8305713383838	0.72238005050505	9.3647017045455	9.5704438450299		
152	16095	1497298295	1.6163820876289	0.77323614690722	9.4132168170103	9.5849438062778		
153	16095	1497298296	1.2291015625	0.8075	9.4224609375	9.5399209879669		
154	16095	1497298297	1.2845643939394	0.83396464646465	9.4043560606061	9.5315353364019		
155	16095	1497298298	1.2533933080808	0.84738005050505	9.4188762626263	9.5424672196344		
156	16095	1497298299	0.57382417929293	0.84086963383838	9.4419191919192	9.4988091427469		
157	16095	1497298300	0.456796875	0.855234375	9.471484375	9.5235729047895	s	s
158	16095	1497298301	0.47515625	0.838203125	9.4487109375	9.5027507380036		
159	16095	1497298302	0.45943813131313	0.84083017676768	9.4897411616162	9.5382898967299		
160	16095	1497298303	0.4553345959596	0.84371054292929	9.4673295454545	9.5162097841313		
161	16095	1497298304	0.451171875	0.8426171875	9.47359375	9.5217251995676		
162	16095	1497298305	0.44905931122449	0.83964445153061	9.4692681760204	9.5170525453778		
163	16095	1497298306	0.44909917091837	0.83828922193878	9.4696667729592	9.5173384280654		
164	16095	1497298307	0.45058795103093	0.84366945876289	9.4726965206186	9.520897161425		
165	16095	1497298308	0.45583545918367	0.84422831632653	9.4758051658163	9.5242963158241		
166	16095	1497298309	0.45078930412371	0.84568298969072	9.4617429123711	9.5101873740956		
167	16095	1497298310	0.45213857323232	0.85053661616162	9.4707228535354	9.5196585968438		
168	16095	1497298311	0.4515625	0.8513671875	9.4712109375	9.5201576656787		
169	16095	1497298312	0.4479296875	0.8584765625	9.47359375	9.5231136408206		
170	16095	1497298313	0.4447265625	0.8517578125	9.476015625	9.5248982546799		
171	16095	1497298314	0.391171875	0.852578125	9.4548828125	9.5024482620155		
172	16095	1497298315	0.15601325757576	0.85456123737374	9.4754971590909	9.5166330178017		
173	16095	1497298316	0.6516796875	0.8372265625	9.5753125	9.638111962608	s	d
174	16095	1497298317	0.642734375	0.809375	9.5446875	9.6074430794163		
175	16095	1497298318	0.32613201530612	0.84737723214286	9.5191725127551	9.5628040447213		
176	16095	1497298319	0.3240234375	0.8422265625	9.5110546875	9.5542940360729		
177	16095	1497298320	0.12663424744898	0.85359534438776	9.5024314413265	9.5421114774245		
178	16095	1497298321	0.1526953125	0.8678515625	9.5015625	9.5429230962325		
179	16095	1497298322	0.13719706632653	0.87117346938776	9.4856106505102	9.5272374012784		
180	16095	1497298323	0.14500956632653	0.86411830357143	9.5663265306122	9.6076261432078		
181	16095	1497298324	0.13206281565657	0.85049715909091	9.497711489899	9.5382566953385		
182	16095	1497298325	0.1265625	0.8758984375	9.5016796875	9.5442661482823		
183	16095	1497298326	0.104609375	0.8455859375	9.4984375	9.5377442095631		
184	16095	1497298327	0.1874609375	0.9816015625	9.4909375	9.5459033131707		
185	16095	1497298328	0.237890625	1.037578125	9.46296875	9.5258843236211		
186	16095	1497298329	0.2532421875	1.0622265625	9.461640625	9.5263373467243		
187	16095	1497298330	0.2506640625	1.073359375	9.4809765625	9.5469383547707		
188	16095	1497298331	0.2203515625	1.122109375	9.5110546875	9.5815607565789		
189	16095	1497298332	0.25671875	1.1446875	9.4746484375	9.5505077247885		
190	16095	1497298333	0.45730744949495	1.1548690025253	9.4883207070707	9.5733773426231		
191	16095	1497298334	0.480546875	1.1251171875	9.464140625	9.5472137147448		
192	16095	1497298335	0.4462109375	1.1201171875	9.427734375	9.5082060095732		
193	16095	1497298336	0.353828125	1.0177734375	9.441015625	9.5046690828079		
194	16095	1497298337	0.34614158163265	0.90915975765306	9.4649234693878	9.5169827716007		
195	16095	1497298338	0.4528125	0.8311328125	9.4941796875	9.5436827673028		
196	16095	1497298339	0.5062181122449	0.86471619897959	9.4494180484694	9.504643994316		
197	16095	1497298340	0.52004419191919	0.86955492424242	9.4539930555556	9.5101548387035		
198	16095	1497298341	0.527109375	0.962734375	9.4410546875	9.5094147141716		
199	16095	1497298342	0.5403125	1.0512109375	9.48	9.5564261435561		
200	16095	1497298343	0.54288983585859	1.1595643939394	9.4411300505051	9.5293625416658		
201	16095	1497298344	0.5460546875	1.2467578125	9.4538671875	9.553196496677		
202	16095	1497298345	0.54791135204082	1.3274473852041	9.4815051020408	9.5919643269673		
203	16095	1497298346	0.5500637755102	1.3380102040816	9.4797512755102	9.5918543939118		
204	16095	1497298347	0.3275726010101	1.25	9.4239662247475	9.5147651424145		
205	16095	1497298348	0.30921875	1.149140625	9.4823828125	9.5592357912196		
206	16095	1497298349	0.3661328125	1.0278125	9.4787109375	9.5433223519059		
207	16095	1497298350	0.483671875	0.936484375	9.430859375	9.4928059490994		
208	16095	1497298351	0.47916666666667	0.87077809343434	9.4445233585859	9.4979598168408		
209	16095	1497298352	0.52631786616162	0.81376262626263	9.4590830176768	9.5108721895696		
210	16095	1497298353	0.51204091494845	0.87109375	9.5099871134021	9.5655345128222		
211	16095	1497298354	0.91169507575758	0.8577178030303	9.4535590277778	9.5435920716759		
212	16095	1497298355	1.02	0.8187109375	9.3796875	9.4760341885823		
213	16095	1497298356	0.89094387755102	0.78997927295918	9.4182079081633	9.5000401646632		
214	16095	1497298357	0.650625	0.7892578125	9.4753515625	9.5337757573404		
215	16095	1497298358	0.62671875	0.8459375	9.4233203125	9.4854276433615		
216	16095	1497298359	0.9776953125	0.831796875	9.412890625	9.5102857917069		
217	16095	1497298360	0.9523046875	0.8424609375	9.4425390625	9.53558167593		
218	16095	1497298361	1.2902734375	0.8351953125	9.3721875	9.5016575069584		
219	16095	1497298362	1.5095091540404	0.76613794191919	9.4138652146465	9.5685693310235		
220	16095	1497298363	1.5589453125	0.79203125	9.3948828125	9.5608266483175		
221	16095	1497298364	1.5047265625	0.7808203125	9.3737890625	9.5292552837096		
222	16095	1497298365	1.2461726641414	0.78503787878788	9.4020280934343	9.520269176966		
223	16095	1497298366	1.022490530303	0.79620422979798	9.426728219697	9.5173852726421		
224	16095	1497298367	1.2917061237374	0.78858901515152	9.422821969697	9.5489331081218		
225	16095	1497298368	1.4698153409091	0.80709438131313	9.421875	9.5739846686907		
226	16095	1497298369	1.2731640625	0.8194140625	9.4173828125	9.5413940881648		
227	16095	1497298370	1.15359375	0.805390625	9.4314453125	9.5387039793695		
228	16095	1497298371	1.3935448232323	0.80571338383838	9.399384469697	9.5383295188208		
229	16095	1497298372	1.2452256944444	0.78590593434343	9.3651357323232	9.4821623344011		
230	16095	1497298373	1.3527184311224	0.79775191326531	9.4345503826531	9.5661218924509		
231	16095	1497298374	0.6933203125	0.8137109375	9.457109375	9.5188272080416		
232	16095	1497298375	0.6894921875	0.799921875	9.4629296875	9.5261074945267	s	s
233	16095	1497298376	0.65041076030928	0.80629832474227	9.4722132731959	9.5334643113804		
234	16095	1497298377	0.64534505208333	0.81522623697917	9.4597574869792	9.5169557805277		
235	16095	1497298378	0.64823820153061	0.81672512755102	9.4487005739796	9.5067802121486		
236	16095	1497298379	0.6378235479798	0.81593276515152	9.4591224747475	9.5156772835176		
237	16095	1497298380	0.640380859375	0.8114013671875	9.4633382161458	9.5196550523498		
238	16095	1497298381	0.63817866161616	0.81399936868687	9.4605034722222	9.5169089363816		
239	16095	1497298382	0.63738952020202	0.81013257575758	9.4574652777778	9.5135086706469		
240	16095	1497298383	0.6389678030303	0.81455176767677	9.4593592171717	9.5158696251687		
241	16095	1497298384	0.63671875	0.80907206632653	9.4650829081633	9.5209435609466		
242	16095	1497298385	0.63742897727273	0.81159248737374	9.4581755050505	9.5143449279229		
243	16095	1497298386	0.63655931122449	0.81102519132653	9.458346619898	9.5144075293588		
244	16095	1497298387	0.63719223484848	0.81514362373737	9.4632654671717	9.5197040544741		
245	16095	1497298388	0.6401171875	0.8133203125	9.4612109375	9.5176909193281		
246	16095	1497298389	0.63675860969388	0.81114477040816	9.4564333545918	9.5125235278825		
247	16095	1497298390	0.63950892857143	0.81222098214286	9.4571906887755	9.5135529284267		
248	16095	1497298391	0.64133522727273	0.81455176767677	9.4605034722222	9.5171635758119		
249	16095	1497298392	0.64019097222222	0.81936553030303	9.4588857323232	9.5158968531437		
250	16095	1497298393	0.63773600260417	0.8194580078125	9.4583740234375	9.5152373471995		
251	16095	1497298394	0.63911033163265	0.81979432397959	9.4561941964286	9.5131878737171		
252	16095	1497298395	0.50347222222222	0.82508680555556	9.4500078914141	9.5013078727776		
253	16095	1497298396	0.283046875	0.8362890625	9.50140625	9.548228491014	s	d
254	16095	1497298397	0.47494476010101	0.82820391414141	9.5407196969697	9.5912929465054		
255	16095	1497298398	0.345078125	0.8525390625	9.4934375	9.5420627111566		
256	16095	1497298399	0.5457702020202	0.8498658459596	9.5251341540404	9.5847286512323		
257	16095	1497298400	0.6085546875	0.8360546875	9.5260546875	9.5869513691155		
258	16095	1497298401	0.3171484375	0.821875	9.497578125	9.5426909109825		
259	16095	1497298402	0.26830808080808	0.8253235479798	9.5326704545455	9.5754662837955		
260	16095	1497298403	0.15625	0.84219547193878	9.4628109056122	9.5041872701937		
261	16095	1497298404	0.19571109693878	0.82676977040816	9.4961734693878	9.5364056390783		
262	16095	1497298405	0.17394770408163	0.83015784438776	9.494778380102	9.5342567857502		
263	16095	1497298406	0.21396683673469	0.84956951530612	9.502272002551	9.5443526829167		
264	16095	1497298407	0.3022265625	0.823671875	9.452109375	9.4948374352994		
265	16095	1497298408	0.60598169191919	0.82682291666667	9.486663510101	9.5446429609439		
266	16095	1497298409	0.66177398989899	0.8348327020202	9.4316208964646	9.4965986919959		
267	16095	1497298410	0.640390625	0.834375	9.4537109375	9.5155320961493		
268	16095	1497298411	0.64378156565657	0.86375473484848	9.4022253787879	9.4665130699631		
269	16095	1497298412	0.6738671875	0.8721484375	9.486640625	9.5535323583446		
270	16095	1497298413	0.63861268939394	1.1326546717172	9.4213226010101	9.5172336743795		
271	16095	1497298414	0.68817077020202	1.4304766414141	9.3980823863636	9.5406739957471		
272	16095	1497298415	0.68982796717172	1.5445075757576	9.4146148989899	9.5789462873309		
273	16095	1497298416	0.961484375	1.4978515625	9.4421484375	9.6173243999969		
274	16095	1497298417	1.0240625	1.4847265625	9.4668359375	9.6448780574087		
275	16095	1497298418	1.02390625	1.4180859375	9.4056640625	9.574318870816		
276	16095	1497298419	1.0551215277778	1.1843039772727	9.3884943181818	9.5265663398304		
277	16095	1497298420	1.0661328125	0.9230078125	9.441484375	9.5523301003174		
278	16095	1497298421	0.80456912878788	0.86320233585859	9.4191919191919	9.4971065235982		
279	16095	1497298422	0.67266414141414	0.83400410353535	9.4456281565657	9.5088666577346		
280	16095	1497298423	0.43793845663265	0.85008769132653	9.4892378826531	9.5413303123914		
281	16095	1497298424	0.1341015625	0.859140625	9.5215234375	9.5624756306469		
282	16095	1497298425	0.22265625	0.8535546875	9.5486328125	9.5905979569921		
283	16095	1497298426	0.1621875	0.8599609375	9.5853125	9.6269558614696		
284	16095	1497298427	0.18068399234694	0.8519212372449	9.5526147959184	9.5949769496539		
285	16095	1497298428	0.1769921875	0.85625	9.44421875	9.488123916777		
286	16095	1497298429	0.1607086489899	0.86513573232323	9.4388020833333	9.4825215477969		
287	16095	1497298430	0.150234375	0.8362109375	9.5166796875	9.5580724892066		
288	16095	1497298431	0.18481691919192	0.86044034090909	9.5387863005051	9.5832279321504		
289	16095	1497298432	0.31114477040816	0.84522480867347	9.4482621173469	9.4990809969921		
290	16095	1497298433	0.648984375	0.8023046875	9.4548046875	9.5241121479218		
291	16095	1497298434	0.93540877525253	0.97620738636364	9.5694839015152	9.7193629540183		
292	16095	1497298435	1.0004296875	1.0862109375	9.513984375	9.6935769980848		
293	16095	1497298436	0.79734375	0.8873046875	9.378203125	9.4911941638949		
294	16095	1497298437	0.69211647727273	0.83041351010101	9.5065104166667	9.5983516900163		
295	16095	1497298438	0.767734375	0.953984375	9.590546875	9.699079426315		
296	16095	1497298439	0.998125	1.1039453125	9.427734375	9.6103350154902		
297	16095	1497298440	1.0184375	0.9271875	9.4956640625	9.6435279436276		
298	16095	1497298441	1.3859375	0.8102734375	9.4265625	9.5818489371674		
299	16095	1497298442	1.0319140625	0.8469140625	9.430625	9.5469729941001		
300	16095	1497298443	1.4522082270408	0.81485172193878	9.451809630102	9.606803612284		
301	16095	1497298444	1.224765625	0.83296875	9.4194921875	9.5473356493114		
302	16095	1497298445	1.350625	0.837578125	9.4391796875	9.5925265659275		
303	16095	1497298446	1.5208333333333	0.82058869949495	9.3830097853535	9.5656212725359		
304	16095	1497298447	1.834609375	0.810078125	9.441484375	9.6667700071416		
305	16095	1497298448	1.9105947066327	0.84139827806122	9.4952566964286	9.7351149521779		
306	16095	1497298449	1.9123828125	0.8011328125	9.403359375	9.6433530783292		
307	16095	1497298450	1.6975	0.8741015625	9.49453125	9.6976334554222		
308	16095	1497298451	1.1859375	0.796953125	9.438671875	9.5518037094943		
309	16095	1497298452	1.7745028409091	0.86848958333333	9.4169823232323	9.6263225928857		
310	16095	1497298453	1.8565449617347	0.82589285714286	9.3620854591837	9.5851455798606		
311	16095	1497298454	1.428345959596	0.89165088383838	9.4172585227273	9.5707453037534		
312	16095	1497298455	1.0414453125	0.89515625	9.4321484375	9.5346651184395		
313	16095	1497298456	1.0415482954545	0.96405460858586	9.4468907828283	9.5550545001961		
314	16095	1497298457	0.876015625	0.964296875	9.469296875	9.5651855702376		
315	16095	1497298458	0.67447916666667	0.90238320707071	9.496764520202	9.5720498447193		
316	16095	1497298459	0.7445703125	0.8478515625	9.41125	9.5005560778632		
317	16095	1497298460	0.71046875	0.877265625	9.483515625	9.5696011678643		
318	16095	1497298461	0.7096875	0.902734375	9.600390625	9.693600958476		
319	16095	1497298462	0.6677734375	0.9003125	9.5037109375	9.5844198348599		
320	16095	1497298463	0.6983984375	0.8046484375	9.4857421875	9.5565912540271		
321	16095	1497298464	0.7158203125	0.803515625	9.57	9.643489047996		
322	16095	1497298465	0.7040625	1.003984375	9.5395703125	9.6388906257006		
323	16095	1497298466	0.728359375	1.247265625	9.3844921875	9.5481501359686		
324	16095	1497298467	0.84489425505051	1.4569917929293	9.3872711489899	9.5551191224258		
325	16095	1497298468	0.82234375	1.491328125	9.466796875	9.6239785281457		
326	16095	1497298469	0.83661511479592	1.3084741709184	9.4710618622449	9.6020582591377		
327	16095	1497298470	0.8899609375	1.1305859375	9.4485546875	9.564416833569		
328	16095	1497298471	0.82425820707071	0.94578598484848	9.4425505050505	9.543384417178		
329	16095	1497298472	0.78734375	0.8031640625	9.445234375	9.5255832470128		
330	16095	1497298473	0.72214330808081	0.82129892676768	9.4631470959596	9.5345144560921		
331	16095	1497298474	0.690546875	0.8296875	9.3991015625	9.4672938443394		
332	16095	1497298475	0.68132174744898	0.85200095663265	9.482102997449	9.553712034502		
333	16095	1497298476	0.68710542929293	0.85373263888889	9.4848090277778	9.5580378688593		
334	16095	1497298477	0.67941130050505	0.84434185606061	9.4395912247475	9.505247402656		
335	16095	1497298478	0.66359375	0.85328125	9.4602734375	9.5253403997552		
336	16095	1497298479	0.66609375	0.8520703125	9.462421875	9.5252978403375		
337	16095	1497298480	0.70584753787879	0.84741950757576	9.491240530303	9.5565920313822		
338	16095	1497298481	1.062421875	0.839453125	9.42359375	9.521203765226		
339	16095	1497298482	1.0410748106061	0.83151830808081	9.4361979166667	9.5314093210031		
340	16095	1497298483	0.7137109375	0.8532421875	9.444140625	9.5116162666259		
341	16095	1497298484	0.939921875	0.837890625	9.457109375	9.5433429662422		
342	16095	1497298485	0.7985546875	0.84109375	9.4375	9.5104495822663		
343	16095	1497298486	0.85029987373737	0.8292297979798	9.4748658459596	9.5523538526633		
344	16095	1497298487	1.355625	0.825	9.4615234375	9.5943299624266		
345	16095	1497298488	1.2505078125	0.8267578125	9.457265625	9.5756872118634		
346	16095	1497298489	1.2187105429293	0.81498579545455	9.4270438762626	9.541099943785		
347	16095	1497298490	1.2078203914141	0.82050978535354	9.4483506944444	9.5610573154397		
348	16095	1497298491	1.15703125	0.8230078125	9.4548046875	9.561325120047		
349	16095	1497298492	1.406484375	0.818046875	9.434765625	9.5744142843504		
350	16095	1497298493	1.4682370580808	0.81845801767677	9.4363952020202	9.5860369939034		
351	16095	1497298494	0.869765625	0.8265234375	9.480078125	9.5593688862276		
352	16095	1497298495	0.7062109375	0.8693359375	9.45875	9.5288698184615	s	s
353	16095	1497298496	0.70408163265306	0.82278380102041	9.4895567602041	9.5557046582359		
354	16095	1497298497	0.71942761479592	0.83294802295918	9.4915098852041	9.5554132442773		
355	16095	1497298498	0.70900410353535	0.83451704545455	9.4774700126263	9.5407774739997		
356	16095	1497298499	0.71213329081633	0.82748724489796	9.4719786352041	9.5350579334494		
357	16095	1497298500	0.80927136479592	0.62958386479592	9.4747289540816	9.5405431558185		
358	16095	1497298501	0.64875	0.8840625	9.329296875	9.4006970381654		
359	16095	1497298502	0.8519140625	1.0221875	9.296171875	9.3960867213316		
360	16095	1497298503	0.68698705808081	1.0677872474747	9.3057922979798	9.3923670324302		
361	16095	1497298504	0.66159119897959	1.0579958545918	9.3295599489796	9.4127598764519		
362	16095	1497298505	0.893203125	1.42109375	9.283984375	9.4813777052338		
363	16095	1497298506	0.830625	1.3201171875	9.263203125	9.3958916935478		
364	16095	1497298507	0.76740056818182	1.3622948232323	9.2571022727273	9.3883610113913		
365	16095	1497298508	0.75197285353535	1.3627683080808	9.2488557449495	9.379025126571		
366	16095	1497298509	0.7475	1.371953125	9.259375	9.3903436445299		
367	16095	1497298510	0.75082859848485	1.3703046085859	9.2643623737374	9.3952727698877		
368	16095	1497298511	0.74865845959596	1.3663589015152	9.2631392045455	9.3933338191496		
369	16095	1497298512	0.748828125	1.3648046875	9.2587890625	9.3888272736432		
370	16095	1497298513	0.75019728535354	1.368805239899	9.2646385732323	9.395284153786		
371	16095	1497298514	0.7492578125	1.3633203125	9.262421875	9.3922331907344		
372	16095	1497298515	0.75248579545455	1.3693576388889	9.2590356691919	9.3900243027496		
373	16095	1497298516	0.7532421875	1.3678125	9.2651171875	9.3958497558516		
374	16095	1497298517	0.7512356505102	1.3619260204082	9.2558992346939	9.3857696880859		
375	16095	1497298518	0.7538671875	1.370078125	9.259765625	9.3909738587575		
376	16095	1497298519	0.75552398989899	1.3622948232323	9.2635732323232	9.393707958456		
377	16095	1497298520	0.757890625	1.3689453125	9.2646875	9.3959495693476		
378	16095	1497298521	0.75737404336735	1.3666294642857	9.2640704719388	9.3949675488449		
379	16095	1497298522	0.75548453282828	1.3589804292929	9.2589172979798	9.3886871394267		
380	16095	1497298523	0.755390625	1.3593359375	9.263203125	9.3928906518757		
381	16095	1497298524	0.756171875	1.36	9.266640625	9.3965293355018		
382	16095	1497298525	0.75466358418367	1.3621253188776	9.2585698341837	9.3887735226278		
383	16095	1497298526	0.43698705808081	1.3614662247475	9.2734375	9.3855070161277		
384	16095	1497298527	0.36650988520408	1.3909040178571	9.3462611607143	9.462782253134	s	d
385	16095	1497298528	0.72349330357143	1.3689014668367	9.3773915816327	9.5105830478366		
386	16095	1497298529	0.6688671875	1.3967578125	9.3615234375	9.4911265239015		
387	16095	1497298530	0.5771875	1.399296875	9.3673828125	9.490474609296		
388	16095	1497298531	0.6428125	1.3802734375	9.266640625	9.3945558557859		
389	16095	1497298532	0.5848327020202	1.3669902146465	9.2085306186869	9.3305808801747		
390	16095	1497298533	0.2046484375	1.3339453125	9.1444921875	9.2471004399401		
391	16095	1497298534	0.6270703125	1.3154296875	9.1071484375	9.2296864858471		
392	16095	1497298535	0.8085546875	1.364453125	9.2257421875	9.3629514052283		
393	16095	1497298536	0.76357323232323	1.5437578914141	9.1420059974747	9.3102116947307		
394	16095	1497298537	0.7943359375	1.6910546875	9.118203125	9.3157864937512		
395	16095	1497298538	0.98934659090909	1.7266414141414	9.0846354166667	9.3208407469081		
396	16095	1497298539	1.1092578125	1.681015625	9.1883203125	9.4122609911448		
397	16095	1497298540	1.1397265625	1.7390234375	9.1097265625	9.349098287045		
398	16095	1497298541	1.1405855429293	1.7898910984848	9.088226010101	9.3369055374844		
399	16095	1497298542	1.1526171875	1.765625	9.07734375	9.3275244280269		
400	16095	1497298543	1.1506865530303	1.8530618686869	9.1061000631313	9.3702720780059		
401	16095	1497298544	1.1758203125	1.8441015625	9.111640625	9.3763581620646		
402	16095	1497298545	1.1417692550505	1.8480113636364	9.1021938131313	9.3660376307348		
403	16095	1497298546	1.152109375	1.882421875	9.104609375	9.3812487276101		
404	16095	1497298547	1.1725	1.9644140625	9.082890625	9.3801443758801		
405	16095	1497298548	1.1891015625	2.000234375	9.111015625	9.4198644227715		
406	16095	1497298549	1.23078125	1.939453125	9.1279296875	9.4224770776376		
407	16095	1497298550	1.6762152777778	1.8853377525253	9.0481770833333	9.4033302044506		
408	16095	1497298551	1.202109375	1.897421875	9.097578125	9.3801468552873		
409	16095	1497298552	1.45859375	1.8619921875	9.0701171875	9.3815827904163		
410	16095	1497298553	1.155859375	1.78515625	9.056640625	9.3095101288549		
411	16095	1497298554	1.0849808673469	1.4410475127551	9.1477598852041	9.3380697828323		
412	16095	1497298555	1.5308203125	1.2448046875	9.2478125	9.4678322766847		
413	16095	1497298556	1.8709753787879	1.3734611742424	9.167021780303	9.4596423688587		
414	16095	1497298557	2.0128125	1.34828125	9.3296484375	9.6419370052152		
415	16095	1497298558	1.855390625	1.3575390625	9.3309765625	9.614388793944		
416	16095	1497298559	1.5409958964646	1.3517597853535	9.34375	9.5681502704734		
417	16095	1497298560	1.1369921875	1.3560546875	9.32609375	9.49621772277		
418	16095	1497298561	1.0565234375	1.313515625	9.3523828125	9.5073796310652		
419	16095	1497298562	1.3461174242424	1.360992739899	9.2101483585859	9.4119164824619		
420	16095	1497298563	1.3020833333333	1.323271780303	9.2168166035354	9.4051629156217		
421	16095	1497298564	1.1263809974747	1.3329387626263	9.2372553661616	9.4030545830688		
422	16095	1497298565	1.738952020202	1.3314393939394	9.1882102272727	9.4479763529738		
423	16095	1497298566	1.4610535272277	1.3441754331683	9.220838490099	9.4340560828304		
424	16095	1497298567	1.8373184974747	1.305634469697	9.1768071338384	9.4519532341696		
425	16095	1497298568	1.5460069444444	1.348997790404	9.2003630050505	9.4280487882615		
426	16095	1497298569	1.4104296875	1.334296875	9.2090234375	9.4125911018319		
427	16095	1497298570	1.4472265625	1.3370703125	9.21265625	9.4216864809314		
428	16095	1497298571	1.28203125	1.343515625	9.203984375	9.3905218576478		
429	16095	1497298572	1.4582421875	1.33796875	9.2078515625	9.4195541173862		
430	16095	1497298573	0.74226641414141	1.3610716540404	9.2528014520202	9.386703549297	s	s
431	16095	1497298574	0.77521306818182	1.3042534722222	9.2368607954545	9.3954482261694		
432	16095	1497298575	0.84142203282828	1.3236663510101	9.262665719697	9.4167672131399		
433	16095	1497298576	0.33739741161616	1.3565735479798	9.3027935606061	9.4257604071878		
434	16095	1497298577	0.44353693181818	1.3840751262626	9.2470801767677	9.3627957190055		
435	16095	1497298578	0.45611447704082	1.3742426658163	9.2908561862245	9.4044342121494		
436	16095	1497298579	0.44639980670103	1.3879268685567	9.2838675902062	9.3977570166603		
437	16095	1497298580	0.46078125	1.3770703125	9.286953125	9.4015040880418		
438	16095	1497298581	0.4451171875	1.3750390625	9.2816796875	9.3936291615545		
439	16095	1497298582	0.454765625	1.3771875	9.2944140625	9.4070187112633		
440	16095	1497298583	0.48784279336735	1.3744021045918	9.2805723852041	9.3952385252926		
441	16095	1497298584	0.4814453125	1.3716015625	9.2801171875	9.3933746013421		
442	16095	1497298585	0.48274075255102	1.3711734693878	9.2934072066327	9.4065184648148		
443	16095	1497298586	0.48413584183673	1.3634805484694	9.2870695153061	9.3992064429745		
444	16095	1497298587	0.48346748737374	1.3645833333333	9.2870896464646	9.3993645264523		
445	16095	1497298588	0.4826783459596	1.3626893939394	9.2848011363636	9.3967995256543		
446	16095	1497298589	0.48287563131313	1.3669507575758	9.2809343434343	9.3936039189487		
447	16095	1497298590	0.48203125	1.3617578125	9.298125	9.4098024644735		
448	16095	1497298591	0.370625	1.3690625	9.294140625	9.4034645541829		
449	16095	1497298592	0.24656723484848	1.3550347222222	9.3310053661616	9.4379182109375	s	d
450	16095	1497298593	0.827890625	1.3309375	9.3755078125	9.5120330904929		
451	16095	1497298594	0.93120216836735	1.3360570790816	9.3843271683673	9.524950206224		
452	16095	1497298595	0.79432397959184	1.3263313137755	9.396165497449	9.5247110365213		
453	16095	1497298596	0.800234375	1.3353125	9.3980859375	9.5269467951652		
454	16095	1497298597	0.8239453125	1.351640625	9.366328125	9.5011026229174		
455	16095	1497298598	0.72782512626263	1.3315577651515	9.3818260732323	9.505884134245		
456	16095	1497298599	0.588515625	1.3594140625	9.4428125	9.564956722652		
457	16095	1497298600	0.48966224747475	1.4162720959596	9.3225220959596	9.4476092542883		
458	16095	1497298601	0.21938775510204	1.6075813137755	9.2584103954082	9.4028445554522		
459	16095	1497298602	0.345	1.647578125	9.216875	9.3740528339891		
460	16095	1497298603	0.605078125	1.5462890625	9.25765625	9.4099778219612		
461	16095	1497298604	0.59457859848485	1.563170770202	9.2286537247475	9.3833620353903		
462	16095	1497298605	0.593125	1.5648046875	9.2479296875	9.4043398667283		
463	16095	1497298606	0.5941015625	1.5233203125	9.27375	9.4207736128467		
464	16095	1497298607	0.59852430555556	1.5122711489899	9.2433317550505	9.3932361697846		
465	16095	1497298608	0.5961328125	1.439296875	9.275078125	9.41364350817		
466	16095	1497298609	0.555078125	1.447890625	9.280703125	9.4206786834038		
467	16095	1497298610	0.44397095959596	1.4347774621212	9.2860243055556	9.4144869882467		
468	16095	1497298611	0.42629419191919	1.4576231060606	9.2589567550505	9.3870888861822		
469	16095	1497298612	0.38664139851485	1.4581528465347	9.2874767945545	9.4142285937975		
470	16095	1497298613	0.238203125	1.438125	9.3044140625	9.4219043835926		
471	16095	1497298614	0.226796875	1.459375	9.2387109375	9.3613472729159		
472	16095	1497298615	0.369609375	1.424609375	9.3081640625	9.4275375223628		
473	16095	1497298616	0.41785037878788	1.3537326388889	9.284485479798	9.3974472650081		
474	16095	1497298617	0.4062109375	1.32734375	9.30625	9.4114534436151		
475	16095	1497298618	0.40171875	1.337734375	9.301484375	9.4074698575256		
476	16095	1497298619	0.39224273989899	1.3856928661616	9.2769886363636	9.3902501860424		
477	16095	1497298620	0.3954296875	1.354921875	9.282578125	9.3911578080748		
478	16095	1497298621	0.409140625	1.421171875	9.2434375	9.3629632555197		
479	16095	1497298622	0.3834375	1.348828125	9.296796875	9.4041380788718		
480	16095	1497298623	0.3973046875	1.25125	9.3126953125	9.4073871907869		
481	16095	1497298624	0.40298150510204	1.198580994898	9.3350207270408	9.4236119395463		
482	16095	1497298625	0.4076171875	1.2241796875	9.2984375	9.3920370051742		
483	16095	1497298626	0.4266015625	1.299375	9.3066015625	9.409883632518		
484	16095	1497298627	0.4147265625	1.256796875	9.29515625	9.3912335107995		
485	16095	1497298628	0.4136328125	1.2455859375	9.297734375	9.3934777064657		
486	16095	1497298629	0.42183554292929	1.2647174873737	9.3028330176768	9.401574527111		
487	16095	1497298630	0.41941849226804	1.2941768685567	9.3359777706186	9.4373234593095		
488	16095	1497298631	0.37697246287129	1.2756806930693	9.3121905940594	9.4090668571797		
489	16095	1497298632	0.3598046875	1.2842578125	9.2967578125	9.394862367637		
490	16095	1497298633	0.3503125	1.2388671875	9.335703125	9.4272357163222		
491	16095	1497298634	0.36244419642857	1.2830835459184	9.3526785714286	9.4500509401704		
492	16095	1497298635	0.3488919005102	1.226243622449	9.3000239158163	9.3897951779241		
493	16095	1497298636	0.3587109375	1.2287109375	9.3187890625	9.4099026627579		
494	16095	1497298637	0.35606664540816	1.280612244898	9.338528380102	9.4353764924552		
495	16095	1497298638	0.363671875	1.228359375	9.359921875	9.4494834463191		
496	16095	1497298639	0.369921875	1.2572265625	9.3306640625	9.4242329725848		
497	16095	1497298640	0.3684765625	1.1894921875	9.3041796875	9.389460327352		
498	16095	1497298641	0.3434375	1.197890625	9.3063671875	9.3932404765433		
499	16095	1497298642	0.34532828282828	1.233428030303	9.3644649621212	9.4535319557804		
500	16095	1497298643	0.34449968434343	1.185211489899	9.3530618686869	9.43674409236		
501	16095	1497298644	0.332734375	1.2593359375	9.3201953125	9.414304845723		
502	16095	1497298645	0.5590234375	1.1925390625	9.3340625	9.4321000116462		
503	16095	1497298646	0.5878515625	1.28625	9.32125	9.4342142708257		
504	16095	1497298647	0.5791796875	1.2155078125	9.2913671875	9.393483384873		
505	16095	1497298648	0.5920703125	1.3080859375	9.32890625	9.4442690847106		
506	16095	1497298649	0.5899609375	1.2707421875	9.299375	9.4113150788493		
507	16095	1497298650	0.58013731060606	1.3252446338384	9.278961489899	9.3966240857998		
508	16095	1497298651	0.58944917929293	1.3446575126263	9.2782118055556	9.4020429328302		
509	16095	1497298652	0.82307449494949	1.3160905934343	9.2783696338384	9.4157615444511		
510	16095	1497298653	0.9987890625	1.4571484375	9.242890625	9.4132913244548		
511	16095	1497298654	0.95071811868687	1.4582544191919	9.2187894570707	9.384381981999		
512	16095	1497298655	0.9015625	1.494609375	9.214140625	9.3807317002643		
513	16095	1497298656	0.60515309343434	1.4906881313131	9.2378077651515	9.3799851327281		
514	16095	1497298657	0.76801658163265	1.4009486607143	9.2176737882653	9.3606031910065		
515	16095	1497298658	0.86316287878788	1.4079861111111	9.2493686868687	9.3988395167123		
516	16095	1497298659	1.0017538265306	1.366868622449	9.2407924107143	9.3974457183307		
517	16095	1497298660	1.0625789141414	1.4047900883838	9.2407670454545	9.4080622175302		
518	16095	1497298661	1.48828125	1.4171565594059	9.1885055693069	9.4167576368002		
519	16095	1497298662	1.18203125	1.396875	9.22171875	9.4024108168995		
520	16095	1497298663	1.3204296875	1.41296875	9.2096484375	9.4109094986963		
521	16095	1497298664	1.1233033459596	1.3985558712121	9.2206044823232	9.3941034454477		
522	16095	1497298665	1.114453125	1.3925390625	9.224140625	9.3953044041745		
523	16095	1497298666	1.0662890625	1.404609375	9.23265625	9.4003177091215		
524	16095	1497298667	0.86828125	1.3921484375	9.2516015625	9.3967815252112		
525	16095	1497298668	0.52459343112245	1.3761559311224	9.2795758928571	9.3983695168407	s	s
526	16095	1497298669	0.4609375	1.4044140625	9.2850390625	9.4099583568923		
527	16095	1497298670	0.458671875	1.387265625	9.2976171875	9.4138687379479		
528	16095	1497298671	0.47967960858586	1.3829308712121	9.2850773358586	9.4002863218563		
529	16095	1497298672	0.45734375	1.3932421875	9.2790625	9.3961440859096		
530	16095	1497298673	0.45446654040404	1.3819444444444	9.2855113636364	9.3988864729613		
531	16095	1497298674	0.4572265625	1.3819140625	9.282578125	9.3961143413341		
532	16095	1497298675	0.4595703125	1.3849609375	9.285859375	9.3999032473084		
533	16095	1497298676	0.4595703125	1.3803125	9.28828125	9.4016296989417		
534	16095	1497298677	0.45065369897959	1.3750797193878	9.281568877551	9.3938054735		
535	16095	1497298678	0.453515625	1.3778515625	9.2906640625	9.4033717936892		
536	16095	1497298679	0.459375	1.367578125	9.2836328125	9.3951830284188		
537	16095	1497298680	0.4607421875	1.36984375	9.2876171875	9.3995130554514		
538	16095	1497298681	0.4615234375	1.3704296875	9.2871484375	9.3991764400479		
539	16095	1497298682	0.462109375	1.367109375	9.2834765625	9.3950868612985		
540	16095	1497298683	0.45864207474227	1.37109375	9.2849146262887	9.3969408633794		
541	16095	1497298684	0.45860953282828	1.3660827020202	9.2805397727273	9.3918775951359		
542	16095	1497298685	0.35483743686869	1.3632023358586	9.2960464015152	9.403659377884		
543	16095	1497298686	0.2556640625	1.390546875	9.3062890625	9.419119318275	s	d
544	16095	1497298687	0.79397551546392	1.324581185567	9.3762483891753	9.5097430118402		
545	16095	1497298688	0.95875	1.3473046875	9.3803515625	9.5269413738442		
546	16095	1497298689	0.5423828125	1.3612109375	9.3622265625	9.4790085478901		
547	16095	1497298690	0.6555859375	1.3323046875	9.3646875	9.4833557333795		
548	16095	1497298691	0.58585858585859	1.3527067550505	9.3702651515152	9.4864910691094		
549	16095	1497298692	0.5485321969697	1.3435527146465	9.3323863636364	9.4458060727617		
550	16095	1497298693	0.363046875	1.3440234375	9.2846875	9.3915958492358		
551	16095	1497298694	0.16090593434343	1.3227588383838	9.266295770202	9.3633777238776		
552	16095	1497298695	0.079111426767677	1.3042140151515	9.3328993055556	9.4250169182233		
553	16095	1497298696	0.09015625	1.291328125	9.30203125	9.3949743922273		
554	16095	1497298697	0.1613919005102	1.2761080994898	9.3451849489796	9.4355851941515		
555	16095	1497298698	0.3202734375	1.199140625	9.2807421875	9.3666015444489		
556	16095	1497298699	0.2985321969697	1.1765309343434	9.2858664772727	9.3676554149606		
557	16095	1497298700	0.5063671875	1.1746875	9.27078125	9.3626324222462		
558	16095	1497298701	0.4477734375	1.218359375	9.241171875	9.3348835561834		
559	16095	1497298702	0.43489583333333	1.2332307449495	9.2265230429293	9.3212702690983		
560	16095	1497298703	0.4955859375	1.2705859375	9.2357421875	9.3402919834051		
561	16095	1497298704	0.57258450255102	1.2970344387755	9.1971859056122	9.3122557004964		
562	16095	1497298705	0.626796875	1.337578125	9.2867578125	9.4128100819362		
563	16095	1497298706	0.61375473484848	1.3879419191919	9.2621922348485	9.402857174428		
564	16095	1497298707	0.65323329207921	1.3877243193069	9.357827970297	9.5089057901164		
565	16095	1497298708	0.64145359848485	1.452178030303	9.2204466540404	9.3765845007336		
566	16095	1497298709	0.62921875	1.413046875	9.2484765625	9.3895069399726		
567	16095	1497298710	0.722265625	1.3837890625	9.268984375	9.4084322655011		
568	16095	1497298711	0.9591796875	1.2992578125	9.31328125	9.4599663610485		
569	16095	1497298712	0.9965234375	1.4256640625	9.3465625	9.5150819013586		
570	16095	1497298713	0.966015625	1.3907421875	9.34546875	9.5077959933938		
571	16095	1497298714	0.9720703125	1.3775	9.35609375	9.5221064368919		
572	16095	1497298715	1.0106640625	1.448203125	9.278671875	9.4704414004109		
573	16095	1497298716	1.001640625	1.4603125	9.339765625	9.5290829007412		
574	16095	1497298717	0.6554296875	1.456640625	9.2962109375	9.4493118863563		
575	16095	1497298718	0.62436868686869	1.3850220959596	9.3774463383838	9.5128949976326		
576	16095	1497298719	0.5998046875	1.3466796875	9.319140625	9.4466731684676		
577	16095	1497298720	0.60310132575758	1.3153409090909	9.4054608585859	9.525485172826		
578	16095	1497298721	0.5759375	1.2683984375	9.401015625	9.512156180191		
579	16095	1497298722	0.592578125	1.267578125	9.3913671875	9.497509658685		
580	16095	1497298723	0.5703125	1.2693734217172	9.2944286616162	9.4028852313649		
581	16095	1497298724	0.557734375	1.2028125	9.260390625	9.3601434332501		
582	16095	1497298725	0.5834765625	1.1755859375	9.2384375	9.3348985765077		
583	16095	1497298726	0.388203125	1.1474609375	9.2423828125	9.3243760193904		
584	16095	1497298727	0.4101171875	1.2075	9.2453515625	9.3372040651307		
585	16095	1497298728	0.9660546875	1.140390625	9.2415625	9.3710150647681		
586	16095	1497298729	1.0352734375	1.1012109375	9.255703125	9.3809927036658		
587	16095	1497298730	1.14484375	1.1096484375	9.2223828125	9.3633635411518		
588	16095	1497298731	0.93651357323232	1.0168087121212	9.3207859848485	9.4260929101592		
589	16095	1497298732	0.931796875	1.1090625	9.307734375	9.4218289602726		
590	16095	1497298733	1.1287484217172	1.1919191919192	9.2510653409091	9.3980612317075		
591	16095	1497298734	0.89066445707071	1.2458964646465	9.2737926136364	9.4016893357858		
592	16095	1497298735	0.9985546875	1.3558203125	9.21421875	9.3705728720127		
593	16095	1497298736	1.0646306818182	1.3439867424242	9.1646938131313	9.3277612211798		
594	16095	1497298737	0.927890625	1.390859375	9.2548828125	9.4068950019942		
595	16095	1497298738	1.0379296875	1.363203125	9.2179296875	9.3786474875825		
596	16095	1497298739	1.13671875	1.3844921875	9.2430078125	9.4173399212139		
597	16095	1497298740	1.20359375	1.3836328125	9.21421875	9.398637456544		
598	16095	1497298741	1.1179296875	1.37390625	9.21921875	9.3906165956623		
599	16095	1497298742	1.0802734375	1.3808203125	9.230859375	9.3998193215694		
600	16095	1497298743	1.3556640625	1.3774609375	9.207421875	9.411567488449		
601	16095	1497298744	1.129609375	1.413984375	9.2095703125	9.3898838444711		
602	16095	1497298745	1.2017578125	1.3790625	9.218125	9.400398100243		
603	16095	1497298746	0.907109375	1.382109375	9.24546875	9.3927668766831		
604	16095	1497298747	1.1528220663265	1.3813775510204	9.2374840561224	9.413486340176		
605	16095	1497298748	1.1873791881443	1.3725032216495	9.218025128866	9.4023901422597	s	s
606	16095	1497298749	0.686953125	1.3733203125	9.272265625	9.4045635951162		
607	16095	1497298750	0.65187026515152	1.3869949494949	9.2666508838384	9.3948461359447		
608	16095	1497298751	0.6372711489899	1.3813920454545	9.2647174873737	9.3899458361542		
609	16095	1497298752	0.6447265625	1.3802734375	9.2597265625	9.3852576675944		
610	16095	1497298753	0.6441725127551	1.3711336096939	9.2582110969388	9.3833292103407		
611	16095	1497298754	0.65873579545455	1.3849826388889	9.2578914141414	9.3872270165622		
612	16095	1497298755	0.63715277777778	1.3726325757576	9.2594696969697	9.3844644899109		
613	16095	1497298756	0.62827493686869	1.3787089646465	9.2616398358586	9.3853579062666		
614	16095	1497298757	0.6244921875	1.3794140625	9.2746875	9.3976368501169		
615	16095	1497298758	0.6244921875	1.381875	9.27046875	9.3938333673933		
616	16095	1497298759	0.62312659438776	1.3767139668367	9.2579719387755	9.3806191695189		
617	16095	1497298760	0.6226953125	1.37765625	9.26359375	9.3863029667773		
618	16095	1497298761	0.624765625	1.377890625	9.2659375	9.3887510288937		
619	16095	1497298762	0.621328125	1.3762109375	9.2682421875	9.3905520676381		
620	16095	1497298763	0.623984375	1.3778515625	9.2745703125	9.3972083335917		
621	16095	1497298764	0.622421875	1.3808203125	9.2699609375	9.3930304625174		
622	16095	1497298765	0.3715234375	1.3751171875	9.2683203125	9.3795737756899	s	d
623	16095	1497298766	0.41765625	1.38359375	9.33515625	9.4548114389302		
624	16095	1497298767	0.5137890625	1.3689453125	9.3560546875	9.4762030505639		
625	16095	1497298768	0.30171875	1.358359375	9.3431640625	9.4507495948018		
626	16095	1497298769	0.23930713383838	1.3551530934343	9.3229561237374	9.4279810420171		
627	16095	1497298770	0.2327734375	1.3615625	9.335703125	9.4405613385465		
628	16095	1497298771	0.2243134469697	1.3514046717172	9.3339251893939	9.4373079550292		
629	16095	1497298772	0.23011363636364	1.3644649621212	9.3282039141414	9.431879753735		
630	16095	1497298773	0.19862689393939	1.3585069444444	9.339172979798	9.4410501992596		
631	16095	1497298774	0.1891796875	1.34171875	9.3539453125	9.4536037125343		
632	16095	1497298775	0.13640625	1.3482421875	9.293125	9.3931180670432		
633	16095	1497298776	0.0835546875	1.26875	9.279609375	9.3679908929991		
634	16095	1497298777	0.07234375	1.1765234375	9.3087109375	9.385367737768		
635	16095	1497298778	0.42375	1.0691015625	9.268359375	9.3447898349204		
636	16095	1497298779	0.63103693181818	1.0166508838384	9.2645991161616	9.3455231156669		
637	16095	1497298780	0.6575	1.0822265625	9.25140625	9.3404904573391		
638	16095	1497298781	0.6640625	1.2459753787879	9.2807765151515	9.3898734824165		
639	16095	1497298782	0.6649609375	1.3705859375	9.24859375	9.3761255332394		
640	16095	1497298783	0.6544140625	1.3798046875	9.2558984375	9.3847150747367		
641	16095	1497298784	0.67875	1.53921875	9.2371875	9.3972864622024		
642	16095	1497298785	0.663203125	1.6578515625	9.182578125	9.3695421235127		
643	16095	1497298786	0.66296875	1.836328125	9.148828125	9.3730362877428		
644	16095	1497298787	0.6328125	1.6529017857143	9.2252072704082	9.4072405969018		
645	16095	1497298788	0.6321484375	1.4755078125	9.2394140625	9.3898537015861		
646	16095	1497298789	0.65170599489796	1.384446747449	9.2561383928571	9.390977528688		
647	16095	1497298790	0.66375	1.379765625	9.275703125	9.4060799685201		
648	16095	1497298791	0.6630078125	1.393046875	9.2769921875	9.4081837600035		
649	16095	1497298792	0.65806502525253	1.3757102272727	9.221314709596	9.3505037799199		
650	16095	1497298793	0.6901171875	1.36359375	9.342265625	9.4706001557755		
651	16095	1497298794	0.6558984375	1.3988671875	9.309140625	9.4414687137825		
652	16095	1497298795	0.6789453125	1.35203125	9.3833984375	9.5118593728059		
653	16095	1497298796	0.6433984375	1.372578125	9.350234375	9.4810846904982		
654	16095	1497298797	0.64157196969697	1.3989109848485	9.2755681818182	9.410842721015		
655	16095	1497298798	0.6667330994898	1.3785475127551	9.271165497449	9.4070360907582		
656	16095	1497298799	0.69913903061224	1.8380899234694	9.1740274234694	9.3972509385811		
657	16095	1497298800	0.7122265625	2.05171875	9.068515625	9.3514857950303		
658	16095	1497298801	0.717578125	2.0150390625	9.2596484375	9.5319866031028		
659	16095	1497298802	0.69610164141414	2.1321022727273	9.1648910984848	9.4825658894411		
660	16095	1497298803	0.72296875	2.0052734375	9.1878125	9.4730436143405		
661	16095	1497298804	0.751171875	2.1137109375	9.173515625	9.4899269389357		
662	16095	1497298805	0.719296875	2.1000390625	9.2280859375	9.5439469414641		
663	16095	1497298806	0.75125	2.084296875	9.2421484375	9.5550152118696		
664	16095	1497298807	0.7319140625	2.079296875	9.3326953125	9.6343397072565		
665	16095	1497298808	0.70726799242424	2.2207623106061	9.2872869318182	9.6188567351477		
666	16095	1497298809	0.69511320153061	2.0467155612245	9.3104272959184	9.6023307532451		
667	16095	1497298810	0.669140625	2.058671875	9.2952734375	9.5763235174229		
668	16095	1497298811	0.7133984375	1.9587109375	9.3195703125	9.5740135856543		
669	16095	1497298812	0.6834765625	1.984765625	9.281953125	9.5306750619904		
670	16095	1497298813	0.6683984375	1.9167578125	9.258359375	9.4854068220358		
671	16095	1497298814	0.63859375	1.8577734375	9.1849609375	9.4013645800639		
672	16095	1497298815	0.62957702020202	1.5913431186869	9.2527225378788	9.4277444063657		
673	16095	1497298816	0.5787109375	1.4290234375	9.276015625	9.4130130941765		
674	16095	1497298817	0.58455650252525	1.365845959596	9.3127367424242	9.4371306585017		
675	16095	1497298818	0.45471070544554	1.412515470297	9.3827351485149	9.50327433131		
676	16095	1497298819	0.45651830808081	1.3937815656566	9.4289378156566	9.5467761443926		
677	16095	1497298820	0.4416015625	1.3746484375	9.3898046875	9.505285212747		
678	16095	1497298821	0.53171875	1.4081640625	9.341640625	9.4695312595929		
679	16095	1497298822	0.5735546875	1.3703515625	9.3460546875	9.4697385930421		
680	16095	1497298823	0.57449776785714	1.3948102678571	9.3492506377551	9.4743917117654		
681	16095	1497298824	0.53330176767677	1.3162484217172	9.2685053661616	9.3796235928755		
682	16095	1497298825	0.535234375	1.327890625	9.2727734375	9.3851129093762		
683	16095	1497298826	0.54375789141414	1.3166824494949	9.2463699494949	9.3581591612409		
684	16095	1497298827	0.55054450757576	1.2939551767677	9.2810921717172	9.3890229401119		
685	16095	1497298828	0.252109375	1.290390625	9.2578515625	9.3535069926521		
686	16095	1497298829	0.153984375	1.271953125	9.108984375	9.2005066439051		
687	16095	1497298830	0.2242506377551	1.2896603954082	9.0988919005102	9.1949765327205		
688	16095	1497298831	0.286796875	1.3044921875	9.101796875	9.2012047556135		
689	16095	1497298832	0.958515625	1.358203125	9.106328125	9.263492104316		
690	16095	1497298833	0.82538659793814	1.3735099871134	9.1968427835052	9.3403629416166		
691	16095	1497298834	0.81194196428571	1.3703364158163	9.2422672193878	9.3909547547313		
692	16095	1497298835	1.0510179924242	1.383759469697	9.2182765151515	9.3863084305209		
693	16095	1497298836	0.991953125	1.3538671875	9.228671875	9.3834053431786		
694	16095	1497298837	0.99928977272727	1.3308475378788	9.2225773358586	9.3747092741375		
695	16095	1497298838	1.0600931186869	1.382141729798	9.1820943813131	9.349272554528		
696	16095	1497298839	1.1468359375	1.3675390625	9.208203125	9.3828915241747		
697	16095	1497298840	0.9413671875	1.3740234375	9.2199609375	9.3714910963708		
698	16095	1497298841	0.98575599747475	1.3640309343434	9.2202888257576	9.3739446825991		
699	16095	1497298842	1.3123828125	1.379375	9.2005859375	9.3975956048887		
700	16095	1497298843	1.3715234375	1.380234375	9.1869921875	9.3954875848226		
701	16095	1497298844	1.284453125	1.37703125	9.193359375	9.3868226212571		
702	16095	1497298845	1.3734765625	1.377578125	9.2025	9.4074482960648		
703	16095	1497298846	1.347578125	1.3801953125	9.1799609375	9.3812906167894		
704	16095	1497298847	1.26078125	1.3814453125	9.1934375	9.3828852532212		
705	16095	1497298848	0.96863042091837	1.3893494897959	9.2107382015306	9.366363903698		
706	16095	1497298849	0.544921875	1.3675860969388	9.2822464923469	9.402451785188	s	s
707	16095	1497298850	0.58127391581633	1.3552295918367	9.2921715561224	9.4171500051715		
708	16095	1497298851	0.574921875	1.378203125	9.2853125	9.4061450104317		
709	16095	1497298852	0.55875157828283	1.3930713383838	9.259154040404	9.3814290965331		
710	16095	1497298853	0.54940025252525	1.3938210227273	9.2737926136364	9.3941736082615		
711	16095	1497298854	0.55715880102041	1.3850446428571	9.2724410076531	9.3919863151257		
712	16095	1497298855	0.556015625	1.3778515625	9.27703125	9.3953985713602		
713	16095	1497298856	0.55460858585859	1.3763809974747	9.2632575757576	9.3815071149153		
714	16095	1497298857	0.5544140625	1.3809765625	9.2686328125	9.3874561121264		
715	16095	1497298858	0.5587890625	1.388203125	9.2666015625	9.386782388634		
716	16095	1497298859	0.55910669191919	1.3868765782828	9.2712673611111	9.3912120830473		
717	16095	1497298860	0.55674130154639	1.3847857603093	9.2761759020619	9.3955978674403		
718	16095	1497298861	0.55819515306122	1.3831712372449	9.2767857142857	9.3960418408509		
719	16095	1497298862	0.55727838010204	1.3858019770408	9.2798150510204	9.3993632564007		
720	16095	1497298863	0.55677872474747	1.3867582070707	9.2723721590909	9.3921347460506		
721	16095	1497298864	0.55924479166667	1.3843180338542	9.2307942708333	9.3508750138464		
722	16095	1497298865	0.56012403350515	1.3857925257732	9.2256765463918	9.3460996085591		
723	16095	1497298866	0.5553125	1.385234375	9.241953125	9.3618328524396		
724	16095	1497298867	0.55216224747475	1.3900726010101	9.243805239899	9.3642817522059		
725	16095	1497298868	0.2671875	1.3844140625	9.26953125	9.3788577011384		
726	16095	1497298869	0.433046875	1.3671484375	9.31671875	9.4345544762068	s	d
727	16095	1497298870	0.53734853316327	1.3700573979592	9.3312739158163	9.455958661452		
728	16095	1497298871	0.1109765625	1.3868359375	9.28984375	9.3947512799324		
729	16095	1497298872	0.267890625	1.377734375	9.2695703125	9.3774735100921		
730	16095	1497298873	0.3043359375	1.389375	9.2671484375	9.3769919684521		
731	16095	1497298874	0.3208203125	1.402109375	9.2547265625	9.3673023359157		
732	16095	1497298875	0.3102734375	1.3863671875	9.2743359375	9.3839981232196		
733	16095	1497298876	0.32118941326531	1.3738839285714	9.2597257653061	9.3693549370911		
734	16095	1497298877	0.3165234375	1.3984765625	9.2523828125	9.366727860921		
735	16095	1497298878	0.3258203125	1.37046875	9.2494140625	9.3592372903695		
736	16095	1497298879	0.23003472222222	1.3550741792929	9.2805397727273	9.3864002073632		
737	16095	1497298880	0.186796875	1.36921875	9.24765625	9.3540008558107		
738	16095	1497298881	0.2579296875	1.3894140625	9.2855859375	9.3993319470205		
739	16095	1497298882	0.4409375	1.3758984375	9.2490234375	9.3671657828335		
740	16095	1497298883	0.4524609375	1.37484375	9.243828125	9.3646498247632		
741	16095	1497298884	0.49621332908163	1.3839684311224	9.2696906887755	9.3914210840038		
742	16095	1497298885	0.4884359529703	1.3743425123762	9.2404084158416	9.3617172140751		
743	16095	1497298886	0.5139678030303	1.3686079545455	9.2418718434343	9.3636499429962		
744	16095	1497298887	0.53385416666667	1.3554292929293	9.2544191919192	9.3754305681845		
745	16095	1497298888	0.5548828125	1.38265625	9.298515625	9.4197497831731		
746	16095	1497298889	0.5096875	1.0990234375	9.3514453125	9.4376919597493		
747	16095	1497298890	0.56734375	1.0109765625	9.363671875	9.4471213615216		
748	16095	1497298891	0.59572285353535	0.97845643939394	9.3420928030303	9.4219095677559		
749	16095	1497298892	0.62021683673469	0.91717155612245	9.353196747449	9.4299053035832		
750	16095	1497298893	0.6172265625	1.0339453125	9.3347265625	9.4192782449979		
751	16095	1497298894	0.5983203125	1.1133984375	9.335	9.424227419921		
752	16095	1497298895	0.60625	1.34546875	9.2323828125	9.3530909481693		
753	16095	1497298896	0.48461174242424	1.3935053661616	9.2260495580808	9.3462000974717		
754	16095	1497298897	0.13828125	1.3855078125	9.2677734375	9.373497914947		
755	16095	1497298898	0.44390625	1.4055078125	9.24125	9.3604419715764		
756	16095	1497298899	0.47758838383838	1.3955571338384	9.246764520202	9.3648674575783		
757	16095	1497298900	0.5038671875	1.373203125	9.236796875	9.3539781640776		
758	16095	1497298901	0.54754577020202	1.4044349747475	9.3002288510101	9.4236233838766		
759	16095	1497298902	0.41915246212121	1.4536379419192	9.2659011994949	9.3918285140637		
760	16095	1497298903	0.11854272959184	1.5009167729592	9.2996651785714	9.4226399240504		
761	16095	1497298904	0.34528882575758	1.5694049873737	9.274108270202	9.414986469		
762	16095	1497298905	0.33621369949495	1.6240924873737	9.2012310606061	9.3543511338238		
763	16095	1497298906	0.33175505050505	1.6028645833333	9.2109769570707	9.3580632207374		
764	16095	1497298907	0.34375	1.6196732954545	9.2107007575758	9.3648547815285		
765	16095	1497298908	0.3552734375	1.6111328125	9.192578125	9.3427301860549		
766	16095	1497298909	0.3559375	1.6280078125	9.2001171875	9.3541623720849		
767	16095	1497298910	0.39015151515152	1.5948547979798	9.1958648989899	9.3454477770712		
768	16095	1497298911	0.38608743686869	1.556976010101	9.2183159722222	9.3620832656394		
769	16095	1497298912	0.36738478535354	1.5238715277778	9.2325205176768	9.3689767210246		
770	16095	1497298913	0.36664603960396	1.4579981435644	9.2251701732673	9.3491664904575		
771	16095	1497298914	0.3716461489899	1.3626893939394	9.259430239899	9.3692228870473		
772	16095	1497298915	0.2151953125	1.3709765625	9.2689453125	9.3735217156087		
773	16095	1497298916	0.17984532828283	1.3813920454545	9.2848011363636	9.3901691146211		
774	16095	1497298917	0.31790561868687	1.4115372474747	9.2383601641414	9.3531724318872		
775	16095	1497298918	0.3841015625	1.4112890625	9.2533203125	9.371536641005		
776	16095	1497298919	0.36343907828283	1.3799321338384	9.2228929924242	9.3339757769132		
777	16095	1497298920	0.3821875	1.3715625	9.225546875	9.3370222960705		
778	16095	1497298921	0.4080078125	1.3928515625	9.2673828125	9.38255273898		
779	16095	1497298922	0.4162890625	1.4543359375	9.169453125	9.301027976543		
780	16095	1497298923	0.66593590561224	2.072584502551	9.1045918367347	9.3742503849719		
781	16095	1497298924	0.5508984375	1.4017578125	9.2290625	9.3562385213758		
782	16095	1497298925	0.61579241071429	1.3443478954082	9.2372847576531	9.3560978562611		
783	16095	1497298926	0.50773514851485	1.4047803217822	9.2401376856436	9.3617924151787		
784	16095	1497298927	0.3887109375	1.3833203125	9.2489453125	9.3609046394356		
785	16095	1497298928	0.40423768939394	1.3892440025253	9.2463699494949	9.3596227403421		
786	16095	1497298929	0.4187109375	1.4047265625	9.2571484375	9.3734916498968		
787	16095	1497298930	0.40096275252525	1.3839962121212	9.2351246843434	9.3481202367732		
788	16095	1497298931	0.4102734375	1.4147265625	9.242890625	9.3610376506812		
789	16095	1497298932	0.42234375	1.379296875	9.2445703125	9.3580337372404		
790	16095	1497298933	0.42613636363636	1.3856928661616	9.2419902146465	9.3565533529618		
791	16095	1497298934	0.419296875	1.3834375	9.25890625	9.3723536394164		
792	16095	1497298935	0.4259765625	1.429609375	9.23265625	9.3538933012611		
793	16095	1497298936	0.4253125	1.3831640625	9.24203125	9.3565087537223		
794	16095	1497298937	0.42641256313131	1.4041587752525	9.2403724747475	9.3577471569009		
795	16095	1497298938	0.19208386479592	1.3842474489796	9.270846619898	9.3786948351638		
796	16095	1497298939	0.3715234375	1.413828125	9.2562890625	9.3734610590903		
797	16095	1497298940	0.2342578125	1.416171875	9.2695703125	9.3823180758248		
798	16095	1497298941	0.208125	1.409453125	9.2413671875	9.3527240171061		
799	16095	1497298942	0.2311328125	1.46203125	9.2297265625	9.350236120522		
800	16095	1497298943	0.24328125	1.4636328125	9.242421875	9.3634304020753		
801	16095	1497298944	0.409765625	1.524609375	9.1998046875	9.3381268619099		
802	16095	1497298945	0.40109375	1.51453125	9.1926171875	9.3297892358949		
803	16095	1497298946	0.40859375	1.4771484375	9.17234375	9.3017278444912		
804	16095	1497298947	0.43781887755102	1.4668367346939	9.1905691964286	9.3195484506014		
805	16095	1497298948	0.4641796875	1.475390625	9.173515625	9.3050971682475		
806	16095	1497298949	0.517578125	1.5036328125	9.15515625	9.2966354010332		
807	16095	1497298950	0.45280934343434	1.4489820075758	9.2558396464646	9.3827202630561		
808	16095	1497298951	0.3592578125	1.401875	9.235859375	9.3560206147532		
809	16095	1497298952	0.3745703125	1.42921875	9.238671875	9.3598710626109		
810	16095	1497298953	0.38036616161616	1.3451704545455	9.2998737373737	9.4082863154139		
811	16095	1497298954	0.50347222222222	1.4394728535354	9.2085700757576	9.3381990267654		
812	16095	1497298955	0.40025252525253	1.3241792929293	9.2781723484848	9.3839404519769		
813	16095	1497298956	0.30578125	1.3922265625	9.2334765625	9.3476688433657		
814	16095	1497298957	0.3091461489899	1.3912168560606	9.2655066287879	9.3780730000706		
815	16095	1497298958	0.3261328125	1.4193359375	9.242734375	9.3598567276209		
816	16095	1497298959	0.38154987373737	1.3869554924242	9.2262468434343	9.3431256693708		
817	16095	1497298960	0.5919140625	1.3828515625	9.2041015625	9.3328124716451		
818	16095	1497298961	0.444375	1.49484375	9.2803125	9.4143294495677		
819	16095	1497298962	0.383828125	1.5034765625	9.306015625	9.4412945478211		
820	16095	1497298963	0.38076073232323	1.5207149621212	9.3161300505051	9.4543093265791		
821	16095	1497298964	0.36109375	1.4998828125	9.28578125	9.4226037921893		
822	16095	1497298965	0.4082421875	1.49515625	9.3348828125	9.4725391972253		
823	16095	1497298966	0.50375	1.39484375	9.326484375	9.4490348110379		
824	16095	1497298967	0.5523828125	1.34015625	9.2933203125	9.4104948619783		
825	16095	1497298968	0.59102746212121	1.377959280303	9.213226010101	9.3401137490755		
826	16095	1497298969	0.579375	1.402109375	9.18453125	9.3141693550437		
827	16095	1497298970	0.59703125	1.44921875	9.265078125	9.4036139571502		
828	16095	1497298971	0.51089015151515	1.3721590909091	9.2693734217172	9.3875986721035		
829	16095	1497298972	0.3748046875	1.404453125	9.288203125	9.4035151994018		
830	16095	1497298973	0.39239690721649	1.3744362113402	9.2754510309278	9.3880281436474		
831	16095	1497298974	0.385390625	1.390234375	9.26421875	9.3772191501224		
832	16095	1497298975	0.4338671875	1.3854296875	9.2799609375	9.3945649129294		
833	16095	1497298976	0.683671875	1.385546875	9.261328125	9.3936136636429		
834	16095	1497298977	1.2205859375	1.3744140625	9.3039453125	9.4879596059675		
835	16095	1497298978	1.01234375	1.394375	9.329921875	9.493204570301		
836	16095	1497298979	0.85400883838384	1.3820233585859	9.3106060606061	9.4547440072572		
837	16095	1497298980	0.865	1.4058203125	9.28828125	9.4422495216509		
838	16095	1497298981	0.84524936868687	1.3587831439394	9.2852746212121	9.4271640832982		
839	16095	1497298982	0.849375	1.3864453125	9.3054296875	9.4499582056302		
840	16095	1497298983	0.592421875	1.43546875	9.253828125	9.3885376974298		
841	16095	1497298984	0.34027777777778	1.3698311237374	9.255247790404	9.3677898098854		
842	16095	1497298985	0.28984375	1.375703125	9.299453125	9.4096962722088		
843	16095	1497298986	0.18234375	1.3922265625	9.2720703125	9.3826126550823		
844	16095	1497298987	0.1260546875	1.3845703125	9.271015625	9.3810472310748		
845	16095	1497298988	0.13383838383838	1.3829703282828	9.3128156565657	9.4210850401413		
846	16095	1497298989	0.2254296875	1.3656640625	9.263125	9.3713684005049		
847	16095	1497298990	0.270546875	1.3519140625	9.26109375	9.3693869022629		
848	16095	1497298991	0.2792578125	1.36328125	9.2551171875	9.3648789293622		
849	16095	1497298992	0.1929296875	1.354765625	9.2483203125	9.3546286261908		
850	16095	1497298993	0.2459375	1.388359375	9.2859765625	9.3971546876135		
851	16095	1497298994	0.1528125	1.36984375	9.2615625	9.3690973321515		
852	16095	1497298995	0.15944602272727	1.3742108585859	9.2421480429293	9.3500881017915		
853	16095	1497298996	0.11525410353535	1.4408933080808	9.251617739899	9.3676617415274		
854	16095	1497298997	0.1308203125	1.396484375	9.2560546875	9.3665696161873		
855	16095	1497298998	0.373984375	1.3854296875	9.226484375	9.3464652707523		
856	16095	1497298999	0.46986607142857	1.4529257015306	9.2195870535714	9.3562875025196		
857	16095	1497299000	0.6131640625	1.944765625	9.14015625	9.3772625804085		
858	16095	1497299001	0.5862962372449	1.9063695790816	9.1467235331633	9.3754698696444		
859	16095	1497299002	0.707734375	1.7145703125	9.172890625	9.3765322509994		
860	16095	1497299003	0.50868055555556	1.3901909722222	9.3125	9.4369186783977		
861	16095	1497299004	0.470078125	1.3531640625	9.296171875	9.4111243815412		
862	16095	1497299005	0.6787890625	1.3955859375	9.2283203125	9.3596825184615		
863	16095	1497299006	0.6942077020202	1.3862452651515	9.2449494949495	9.3777534185182		
864	16095	1497299007	0.3137890625	1.3367578125	9.315546875	9.4181086053138		
865	16095	1497299008	0.35671875	0.9340625	9.38421875	9.4520404155815		
866	16095	1497299009	0.4821654040404	0.80985637626263	9.3693970959596	9.4285562590779		
867	16095	1497299010	0.5619476010101	0.82106218434343	9.4217171717172	9.4850456647066		
868	16095	1497299011	0.58211016414141	1.3517597853535	9.2907591540404	9.4158599323525		
869	16095	1497299012	0.54715119949495	1.3687657828283	9.2672032828283	9.3902710940426		
870	16095	1497299013	0.52156409438776	1.3861208545918	9.28515625	9.4043706160635		
871	16095	1497299014	0.50921875	1.396796875	9.2483984375	9.370526306474		
872	16095	1497299015	0.5803125	1.3603515625	9.2705859375	9.3913913709475		
873	16095	1497299016	1.0329639668367	1.402662627551	9.220065369898	9.3844098484112		
874	16095	1497299017	1.0017578125	1.3930078125	9.22984375	9.3892879021701		
875	16095	1497299018	0.63580197704082	1.400071747449	9.2634327168367	9.3922481813109		
876	16095	1497299019	0.62949810606061	1.4097222222222	9.2680318813131	9.3966410636117		
877	16095	1497299020	0.84901147959184	1.3966438137755	9.2389588647959	9.3862656606828		
878	16095	1497299021	1.1830755739796	1.3938536352041	9.220384247449	9.4018744393983		
879	16095	1497299022	1.0764739046392	1.3963031572165	9.2331266108247	9.4013148141552		
880	16095	1497299023	0.9855078125	1.3946875	9.2275390625	9.3846527993437		
881	16095	1497299024	1.143584280303	1.3927556818182	9.2215909090909	9.3971720754325		
882	16095	1497299025	1.057955994898	1.3983976403061	9.2244499362245	9.3904730811113		
883	16095	1497299026	1.251341540404	1.4009627525253	9.2062421085859	9.3974110687314		
884	16095	1497299027	1.1499763257576	1.3926373106061	9.2182765151515	9.3954509525476		
885	16095	1497299028	0.590078125	1.3775	9.250078125	9.3765290390305	s	s
886	16095	1497299029	0.570859375	1.3718359375	9.2794921875	9.4037924563561		
887	16095	1497299030	0.562109375	1.3993359375	9.262421875	9.3844319798949		
888	16095	1497299031	0.59016591494845	1.4112838273196	9.2687258376289	9.3955663608859		
889	16095	1497299032	0.56968118686869	1.4112215909091	9.2698863636364	9.3942187440058		
890	16095	1497299033	0.60957228535354	1.3815104166667	9.2619160353535	9.3887688646194	s	l
891	16095	1497299034	2.7255078125	2.22515625	9.1968359375	10.657454441112		
892	16095	1497299035	9.01	3.3390625	4.0365625	11.071928025953		
893	16095	1497299036	4.7541852678571	6.9189652423469	2.4357461734694	8.9973035975799		
894	16095	1497299037	5.5945391414141	6.8470643939394	3.2710306186869	9.8673267082177		
895	16095	1497299038	5.5868055555556	7.0542140151515	2.0745344065657	9.5959597495944		
896	16095	1497299039	5.65015625	6.782109375	2.47890625	9.5542701432372		
897	16095	1497299040	6.7989662247475	6.3604797979798	3.1717171717172	10.995789494328		
898	16095	1497299041	3.489140625	3.6176171875	7.0930078125	9.1173498833784		
899	16095	1497299042	2.8677853954082	3.0247927295918	8.6014030612245	9.7918012597662		
900	16095	1497299043	1.8484375	2.514765625	8.5384375	9.2668722009234		
901	16095	1497299044	0.6257174744898	2.1391501913265	8.9695471938776	9.2937221894243		
