n	Session	accelerometer.seconds.Unix	accelerometer.accx.Average	accelerometer.accy.Average	accelerometer.accz.Average	accelerometer.accx.Average-All	events.type	events.description
1	16074	1497258683	0.414794921875	4.801025390625	8.49365234375	9.7725972745968		
2	16074	1497258684	0.83692392676768	5.1693892045455	7.4647648358586	9.1511632348463		
3	16074	1497258685	0.6382421875	5.215703125	7.4933203125	9.161399555014		
4	16074	1497258686	0.419453125	5.0528515625	7.554375	9.1053538559539		
5	16074	1497258687	0.6076783459596	5.3270202020202	7.4311868686869	9.1682933805028		
6	16074	1497258688	0.44736426767677	5.0497159090909	7.6208964646465	9.1623017666755		
7	16074	1497258689	0.8744476010101	4.488952020202	7.7264046717172	9.0077859016593		
8	16074	1497258690	0.359375	3.740625	8.6243359375	9.4225292713683		
9	16074	1497258691	0.32189078282828	2.6311158459596	8.8956755050505	9.3015158207063		
10	16074	1497258692	0.43967461340206	1.225475193299	9.3321520618557	9.4233666277519		
11	16074	1497258693	0.4459765625	1.046640625	9.346015625	9.4152942756215		
12	16074	1497258694	0.43662308673469	1.0316884566327	9.3505261479592	9.4175066556926		
13	16074	1497258695	0.42645886479592	1.1000079719388	9.3342633928571	9.4086410395904		
14	16074	1497258696	0.43241373697917	1.1030680338542	9.3335774739583	9.4085881891014		
15	16074	1497258697	0.45559630102041	1.0597496811224	9.3486128826531	9.41958013445		
16	16074	1497258698	0.45228794642857	1.0695153061224	9.3413185586735	9.4132769130043		
17	16074	1497258699	0.45399305555556	1.0811631944444	9.3355902777778	9.4090094583738		
18	16074	1497258700	0.46261160714286	1.0707110969388	9.3397640306122	9.4123999087337		
19	16074	1497258701	0.48234215561224	1.0493861607143	9.3403220663265	9.4115535147018		
20	16074	1497258702	0.505859375	0.99386160714286	9.3476163903061	9.4139462843711		
21	16074	1497258703	0.49100748697917	1.0134684244792	9.3453776041667	9.4130544586954		
22	16074	1497258704	0.4964599609375	1.0701904296875	9.3346354166667	9.4090041805666		
23	16074	1497258705	0.48574420103093	1.1192010309278	9.321399806701	9.4010694183732		
24	16074	1497258706	0.51064253826531	1.0402582908163	9.3407605229592	9.412493626331		
25	16074	1497258707	0.49609375	1.034912109375	9.3394368489583	9.4097700903402		
26	16074	1497258708	0.4929049744898	1.0412547831633	9.3420360331633	9.4128658244174		
27	16074	1497258709	0.49045586340206	1.053600193299	9.3374677835052	9.4095649727112		
28	16074	1497258710	0.49146262886598	1.0509826030928	9.3350918170103	9.4069667854525		
29	16074	1497258711	0.6193970959596	1.0590277777778	9.3192866161616	9.4065082792345		
30	16074	1497258712	0.73983577806122	1.2469308035714	9.2623166454082	9.3860441609457		
31	16074	1497258713	0.7906640625	1.3897265625	9.2612890625	9.4061351874839		
32	16074	1497258714	0.49423926767677	1.4630287247475	9.2381234217172	9.381158070916		
33	16074	1497258715	0.54020675505051	1.0814393939394	9.1882496843434	9.2904166180264		
34	16074	1497258716	0.41848692602041	0.32051179846939	9.6157924107143	9.6438482109417		
35	16074	1497258717	0.037129934210526	0.10777138157895	9.5051809210526	9.5061250755797		
36	16074	1497258718	0.021085778061224	0.091757015306122	9.4795519770408	9.4800325255818		
37	16074	1497258719	0.01969068877551	0.092354910714286	9.4851721938776	9.4856574299612		
38	16074	1497258720	0.019699260752688	0.09332997311828	9.4821068548387	9.4825987197093		
39	16074	1497258721	0.01941043814433	0.094354059278351	9.4818379510309	9.4823380765633		
40	16074	1497258722	0.020990728021978	0.095037774725275	9.4825291895604	9.4830414645604		
41	16074	1497258723	0.021792763157895	0.095600328947368	9.4895970394737	9.4901163077706		
42	16074	1497258724	0.020749327956989	0.095430107526882	9.4914734543011	9.4919872200371		
43	16074	1497258725	0.022261424731183	0.09396001344086	9.4923555107527	9.4928574529736		
44	16074	1497258726	0.027625644329897	0.11042203608247	9.4895699097938	9.490603938071		
45	16074	1497258727	0.9899609375	0.52140625	9.4354296875	9.5469041409247		
46	16074	1497258728	0.5163671875	0.7820703125	9.36515625	9.4415472672488		
47	16074	1497258729	0.42613636363636	0.33806818181818	9.4613715277778	9.5037819981107		
48	16074	1497258730	0.26704915364583	0.24031575520833	9.4641927083333	9.4713046050937		
49	16074	1497258731	0.23947704081633	0.24226721938776	9.4638073979592	9.470120268994		
50	16074	1497258732	0.207109375	0.23265625	9.46546875	9.4707092963274		
51	16074	1497258733	0.19671875	0.231875	9.4562890625	9.4613714096728		
52	16074	1497258734	0.20587531887755	0.1988600127551	9.4632892219388	9.4677676775766		
53	16074	1497258735	0.1865234375	0.2101171875	9.4673046875	9.4715857283311		
54	16074	1497258736	0.17041015625	0.22880045572917	9.4597574869792	9.4641818356553		
55	16074	1497258737	0.408828125	0.306015625	9.4671875	9.4930097476983		
56	16074	1497258738	0.85515309343434	0.8403961489899	9.4575441919192	9.5768283990242		
57	16074	1497258739	0.93703125	0.8195703125	9.75375	9.8481239910037		
58	16074	1497258740	1.766966540404	1.4042771464646	9.4343434343434	9.8049452732241		
59	16074	1497258741	0.53859375	0.3962890625	8.873046875	8.914258844525		
60	16074	1497258742	1.4344618055556	0.68777619949495	9.2961647727273	9.4739700528174		
61	16074	1497258743	0.77375315656566	1.0043797348485	9.5327099116162	9.6691210537507		
62	16074	1497258744	1.6671796085859	0.69787720959596	9.2975852272727	9.5067390776033		
63	16074	1497258745	1.4041796875	0.776328125	9.302890625	9.4717169303665		
64	16074	1497258746	1.830689709596	1.0749289772727	9.1424005681818	9.4784847864152		
65	16074	1497258747	1.6757421875	0.588203125	9.4916796875	9.7037079011633		
66	16074	1497258748	1.8876171875	0.5230859375	9.199921875	9.469802455309		
67	16074	1497258749	0.4609765625	0.485234375	9.3741015625	9.4082204389282		
68	16074	1497258750	0.7259765625	0.174296875	9.495	9.5296339183449		
69	16074	1497258751	0.81536989795918	0.23166454081633	9.456712372449	9.5038235382823		
70	16074	1497258752	0.91031568877551	0.24426020408163	9.4650031887755	9.5154110695239		
71	16074	1497258753	1.053053252551	0.24944196428571	9.4074457908163	9.4750686637926		
72	16074	1497258754	1.0580755739796	0.2581712372449	9.4331154336735	9.4961554734543		
73	16074	1497258755	1.10125	0.2334765625	9.4179296875	9.4852839151953		
74	16074	1497258756	1.123046875	0.258671875	9.4247265625	9.4955106135921		
75	16074	1497258757	1.1146622474747	0.23035037878788	9.422545770202	9.4913318536496		
76	16074	1497258758	1.1671796085859	0.22889046717172	9.4048295454545	9.4802155772606		
77	16074	1497258759	1.1764453125	0.3101953125	9.4225390625	9.5014632244615		
78	16074	1497258760	1.1838329081633	0.38827327806122	9.4262197066327	9.5085213592929		
79	16074	1497258761	1.1558115433673	0.28742825255102	9.4002710459184	9.4757238771446		
80	16074	1497258762	1.4019921875	0.6626953125	9.4246875	9.5560491853095		
81	16074	1497258763	1.4594921875	0.5378515625	9.3244140625	9.4569532485711		
82	16074	1497258764	0.70754419191919	0.48559816919192	9.5197679924242	9.5888440357314		
83	16074	1497258765	1.2226957070707	0.94468118686869	9.3875078914141	9.5308272426921		
84	16074	1497258766	0.877734375	0.7716015625	9.2933203125	9.3932785918381		
85	16074	1497258767	0.63827327806122	0.72361288265306	9.3228635204082	9.4014819935347		
86	16074	1497258768	0.8024609375	0.5926171875	9.5647265625	9.6441443710152		
87	16074	1497258769	0.6822265625	1.899921875	8.9849609375	9.2451216530547		
88	16074	1497258770	0.217265625	1.8040625	9.242265625	9.4241635509988		
89	16074	1497258771	0.12974330357143	1.5178571428571	9.2670998086735	9.392983912295		
90	16074	1497258772	0.54490214646465	1.3322285353535	9.3109611742424	9.4406902976112		
91	16074	1497258773	2.176796875	2.4454296875	8.731875	9.4261429748921		
92	16074	1497258774	0.9376220703125	1.7710367838542	8.799072265625	9.1057559502641		
93	16074	1497258775	1.3987109375	1.2884765625	9.421328125	9.7080410481503		
94	16074	1497258776	1.2088857323232	2.0035116792929	9.3076073232323	9.6753413977475		
95	16074	1497258777	1.3038105867347	2.8476961096939	8.7741151147959	9.3943427833069		
96	16074	1497258778	2.1485546875	2.3340234375	8.6357421875	9.3575110859228		
97	16074	1497258779	2.408538510101	1.2204071969697	9.5585542929293	10.034102202215		
98	16074	1497258780	2.516328125	0.8865234375	8.8453515625	9.3418326469895		
99	16074	1497258781	1.585	3.4226171875	8.8922265625	9.9133294032554		
100	16074	1497258782	1.0734296085859	3.5656565656566	8.1043244949495	9.1629880177216		
101	16074	1497258783	0.7151171875	0.544921875	9.5375	9.6042357792181	s	e
102	16074	1497258784	0.31912878787879	0.35164141414141	9.46484375	9.4857883961231		
103	16074	1497258785	0.5109375	0.730859375	9.608125	9.6700393779245		
104	16074	1497258786	1.4797265625	1.0325	9.2358984375	9.5734131144924		
105	16074	1497258787	0.3642074742268	0.27166559278351	9.5506201675258	9.5685450722484		
106	16074	1497258788	0.41812657828283	0.50355113636364	9.4404198232323	9.4816673747884		
107	16074	1497258789	0.2642578125	0.845703125	9.39109375	9.4397010036344		
108	16074	1497258790	0.3091461489899	0.66437815656566	9.4252288510101	9.4577470314958		
109	16074	1497258791	0.29654947916667	0.53548177083333	9.4241943359375	9.4442095546684		
110	16074	1497258792	0.3095703125	0.515625	9.4342854817708	9.4535053842224		
111	16074	1497258793	0.3069365530303	0.56687973484848	9.4232559974747	9.4456508663648		
112	16074	1497258794	0.14074337121212	0.40108112373737	9.4515467171717	9.4614005890539		
113	16074	1497258795	0.12842793367347	0.3863600127551	9.4496572066327	9.458597391524		
114	16074	1497258796	0.152578125	0.426171875	9.4469140625	9.4578994030289		
115	16074	1497258797	0.15848214285714	0.39640465561224	9.4432796556122	9.4530055875694		
116	16074	1497258798	0.1553125	0.372734375	9.44921875	9.4579819207468		
117	16074	1497258799	0.24334343112245	0.3483737244898	9.4668367346939	9.4800151213964		
118	16074	1497258800	0.1012806056701	0.72990496134021	9.3745972938144	9.4040168135155		
119	16074	1497258801	0.10068558673469	0.67334980867347	9.4186463647959	9.4440573401284		
120	16074	1497258802	0.83191287878788	0.73019255050505	9.3884548611111	9.456956843845	s	d
121	16074	1497258803	0.7121484375	0.8559765625	9.416015625	9.4932696295114		
122	16074	1497258804	0.36463647959184	0.95595503826531	9.404296875	9.4751165665736		
123	16074	1497258805	0.29578125	0.92171875	9.396796875	9.4555474895687		
124	16074	1497258806	0.17696496212121	0.80527935606061	9.416351010101	9.4571435821975		
125	16074	1497258807	0.1284765625	0.7883203125	9.421484375	9.4599872971905		
126	16074	1497258808	0.10499043367347	0.50864955357143	9.4978874362245	9.5139935656108		
127	16074	1497258809	0.35475852272727	1.2224984217172	9.299439709596	9.3917126793728		
128	16074	1497258810	0.24013573232323	1.1090593434343	9.366240530303	9.4360799379941		
129	16074	1497258811	0.095942283163265	1.0096460459184	9.4032605229592	9.4585203977727		
130	16074	1497258812	0.096953125	0.882109375	9.3884375	9.4320542898111		
131	16074	1497258813	0.1198828125	0.8017578125	9.404609375	9.441641604181		
132	16074	1497258814	0.88005050505051	0.69854797979798	9.4313841540404	9.5380094079164		
133	16074	1497258815	0.63296875	0.69875	9.54765625	9.6160601995177		
134	16074	1497258816	0.285546875	0.7604296875	9.481953125	9.5247653250534		
135	16074	1497258817	0.838125	1.1155859375	9.4828515625	9.5905944521355		
136	16074	1497258818	0.3683984375	1.101796875	9.521015625	9.5964852747814		
137	16074	1497258819	0.37527619949495	1.1486742424242	9.545928030303	9.6482969317983		
138	16074	1497258820	0.44629892676768	0.87306660353535	9.4972380050505	9.5562248622618		
139	16074	1497258821	0.64090119949495	0.91883680555556	9.6329308712121	9.7024571663385		
140	16074	1497258822	0.530390625	1.061015625	9.6062109375	9.6841144760848		
141	16074	1497258823	0.5511328125	1.148671875	9.6047265625	9.6903478236783		
142	16074	1497258824	0.67230902777778	1.1260258838384	9.623658459596	9.7134925260009		
143	16074	1497258825	0.4016796875	1.0358203125	9.5451171875	9.6160544389006		
144	16074	1497258826	0.1944140625	0.884453125	9.51578125	9.5605751776121		
145	16074	1497258827	0.1630859375	0.94796875	9.489375	9.5399048673158		
146	16074	1497258828	0.1518359375	1.172734375	9.50265625	9.5773461415207		
147	16074	1497258829	0.11288667929293	1.1545138888889	9.4988952020202	9.5704563399292		
148	16074	1497258830	0.183203125	1.1666015625	9.503828125	9.5782921795064		
149	16074	1497258831	0.11545138888889	1.131865530303	9.48046875	9.5503875037643		
150	16074	1497258832	0.099609375	1.1684375	9.5121484375	9.5852093122475		
151	16074	1497258833	0.1106640625	1.15671875	9.474296875	9.5472054156391		
152	16074	1497258834	0.05792297979798	1.1591303661616	9.4883996212121	9.5604933843705		
153	16074	1497258835	0.0371484375	1.135625	9.4817578125	9.5505581917069		
154	16074	1497258836	0.067945075757576	1.1443339646465	9.4696180555556	9.5393710968927		
155	16074	1497258837	0.053661616161616	1.1248816287879	9.4957386363636	9.5630451954994		
156	16074	1497258838	0.0609375	1.161484375	9.496328125	9.5684324969063		
157	16074	1497258839	0.206796875	1.156171875	9.484375	9.5592212923582		
158	16074	1497258840	0.68379103535354	1.0060763888889	9.4463383838384	9.5273965193091		
159	16074	1497258841	0.4600390625	1.044609375	9.4116796875	9.4829721190123		
160	16074	1497258842	0.25528724747475	1.0622238005051	9.4703282828283	9.5353716245266		
161	16074	1497258843	0.11348260309278	1.073131443299	9.4846971649485	9.5465468556113		
162	16074	1497258844	0.2186328125	1.0149609375	9.51375	9.5740395186093		
163	16074	1497258845	1.2171717171717	0.76874210858586	9.3536931818182	9.4708585789261		
164	16074	1497258846	0.39	0.9318359375	9.4105859375	9.4659189365024		
165	16074	1497258847	0.263828125	0.9176953125	9.4333203125	9.4833972723827		
166	16074	1497258848	0.0646875	0.9610546875	9.44125	9.4908592691852		
167	16074	1497258849	0.540703125	0.9465625	9.424453125	9.5046526972685		
168	16074	1497258850	0.7751171875	0.807109375	9.402109375	9.4789853330672		
169	16074	1497258851	1.2273516414141	0.69539141414141	9.4150883838384	9.5249375470259		
170	16074	1497258852	1.260390625	0.7439453125	9.402734375	9.5176032252603		
171	16074	1497258853	1.4245854591837	0.76028380102041	9.3997130102041	9.5388179870628		
172	16074	1497258854	1.4161537247475	0.80571338383838	9.3860085227273	9.5269484745957		
173	16074	1497258855	1.29921875	0.775234375	9.3900390625	9.5160414165359		
174	16074	1497258856	1.0425390625	0.9059375	9.3683203125	9.4835249854037		
175	16074	1497258857	1.619296875	0.8181640625	9.3310546875	9.5103576334101		
176	16074	1497258858	1.1455859375	1.0250390625	9.432890625	9.5586945407455		
177	16074	1497258859	1.44890625	0.8830078125	9.4283203125	9.5822242269389		
178	16074	1497258860	1.009453125	0.700546875	9.461953125	9.5424854518249		
179	16074	1497258861	1.1095722853535	0.74684343434343	9.4784169823232	9.5731156884608		
180	16074	1497258862	1.0190577651515	0.75895675505051	9.4710779671717	9.5651808054399		
181	16074	1497258863	0.703984375	0.7968359375	9.4904296875	9.5634634742668		
182	16074	1497258864	0.19136679292929	0.85696811868687	9.4945154671717	9.5368815278015	s	s
183	16074	1497258865	0.20324457908163	0.87276785714286	9.5165019132653	9.5623594874073		
184	16074	1497258866	0.093276515151515	0.91485164141414	9.5141650883838	9.5593683909982		
185	16074	1497258867	0.063775510204082	0.9250637755102	9.4995615433673	9.5449663018178		
186	16074	1497258868	0.0566015625	0.938828125	9.5169921875	9.5638972803699		
187	16074	1497258869	0.788359375	0.857734375	9.4694921875	9.5485224037213		
188	16074	1497258870	0.96671715561224	0.8883131377551	9.4429607780612	9.5362736930882		
189	16074	1497258871	0.73224431818182	1.0294744318182	9.4737215909091	9.5577626756822		
190	16074	1497258872	0.7178237757732	1.047962306701	9.4734213917526	9.5583104631597		
191	16074	1497258873	0.63847257653061	1.0559630102041	9.4772799744898	9.5573247775013		
192	16074	1497258874	0.62646484375	1.0540364583333	9.4745686848958	9.5536173108476		
193	16074	1497258875	0.8083984375	0.9459375	9.4587109375	9.5416844347584		
194	16074	1497258876	0.89220328282828	0.78464330808081	9.4865451388889	9.5632944132279		
195	16074	1497258877	0.65078125	0.11109375	9.428359375	9.4531648439589		
196	16074	1497258878	0.69359375	0.096953125	9.4587890625	9.4857911984049		
197	16074	1497258879	0.71701388888889	0.22147253787879	9.4655934343434	9.4956769260554		
198	16074	1497258880	0.24988162878788	0.43789457070707	9.4966066919192	9.5143007857545		
199	16074	1497258881	0.098090277777778	0.52351641414141	9.4987373737374	9.5137413630523		
200	16074	1497258882	0.26191804846939	0.44080835459184	9.5310108418367	9.5507772870461		
201	16074	1497258883	0.58455650252525	0.34730113636364	9.4348958333333	9.4709133406115		
202	16074	1497258884	0.324609375	0.1187890625	9.478359375	9.4849961006369		
203	16074	1497258885	0.26949179292929	0.11702967171717	9.494476010101	9.4991508382028		
204	16074	1497258886	0.25637755102041	0.09390943877551	9.4878029336735	9.4926782250051		
205	16074	1497258887	0.7138671875	0.0689453125	9.4821484375	9.5143773952047	s	d
206	16074	1497258888	1.19921875	0.2071484375	9.488203125	9.574137514851		
207	16074	1497258889	1.608984375	0.1253125	9.4504296875	9.5876641040228		
208	16074	1497258890	1.4811328125	0.1203515625	9.4601953125	9.577540764392		
209	16074	1497258891	1.3771306818182	0.12464488636364	9.4713936237374	9.5728825962481		
210	16074	1497258892	1.3319140625	0.1015625	9.47171875	9.5668555634155		
211	16074	1497258893	1.3631234217172	0.13604797979798	9.4721433080808	9.5722511184518		
212	16074	1497258894	1.2909375	0.1449609375	9.476171875	9.5659245755319		
213	16074	1497258895	1.0114425505051	0.14784564393939	9.4865056818182	9.5422381917763		
214	16074	1497258896	0.95316527061856	0.15238402061856	9.5030202963918	9.5522679751558		
215	16074	1497258897	0.81739267676768	0.15364583333333	9.5010653409091	9.5385736790052		
216	16074	1497258898	0.5720703125	0.131953125	9.5573046875	9.5776578032512		
217	16074	1497258899	0.4621484375	0.1025	9.550703125	9.5632514821572		
218	16074	1497258900	0.287265625	0.1015625	9.55609375	9.5627411512316		
219	16074	1497258901	0.088192654639175	0.084085051546392	9.590931056701	9.5922436558305		
220	16074	1497258902	0.207265625	0.1234375	9.5698828125	9.5748834359953		
221	16074	1497258903	0.461484375	0.0882421875	9.5675	9.580201128145		
222	16074	1497258904	0.5515625	0.093671875	9.57046875	9.5884742763925		
223	16074	1497258905	0.56987847222222	0.077335858585859	9.57421875	9.592894091375		
224	16074	1497258906	0.59189551767677	0.071535669191919	9.5310921717172	9.5507786012718		
225	16074	1497258907	0.68399234693878	0.089086415816327	9.490872130102	9.5171453986031		
226	16074	1497258908	0.684921875	0.083515625	9.4594921875	9.4858106961364		
227	16074	1497258909	0.66095344387755	0.0859375	9.4745296556122	9.4987589834864		
228	16074	1497258910	0.613984375	0.1098046875	9.4429296875	9.4645342923437		
229	16074	1497258911	0.575625	0.1203125	9.5019140625	9.5213069467069		
230	16074	1497258912	0.565859375	0.2132421875	9.5801171875	9.600845013508		
231	16074	1497258913	0.61983112373737	0.24001736111111	9.5267913510101	9.5524024004188		
232	16074	1497258914	0.60645517676768	0.28448547979798	9.5154671717172	9.5412430781024		
233	16074	1497258915	0.57362085459184	0.26076211734694	9.5261878188776	9.548994896644		
234	16074	1497258916	0.58484375	0.278046875	9.535234375	9.5594607557581		
235	16074	1497258917	0.57760682397959	0.31792091836735	9.5395408163265	9.5656750528511		
236	16074	1497258918	0.557890625	0.30046875	9.52515625	9.5497367466624		
237	16074	1497258919	0.513203125	0.2856640625	9.5484765625	9.5703999874688		
238	16074	1497258920	0.43177872474747	0.3158538510101	9.5301057449495	9.5480196829346		
239	16074	1497258921	0.403515625	0.3487890625	9.520625	9.5374275644061		
240	16074	1497258922	0.2795533459596	0.26996527777778	9.5518465909091	9.5623721335163		
241	16074	1497258923	0.29486268939394	0.27544981060606	9.5453361742424	9.558637598376		
242	16074	1497258924	0.26703125	0.2780078125	9.5499609375	9.5616799938009		
243	16074	1497258925	0.35006313131313	0.12661773989899	9.4976325757576	9.507624506497		
244	16074	1497258926	0.250546875	0.0433203125	9.4622265625	9.4661887155215		
245	16074	1497258927	0.2465234375	0.11046875	9.4319140625	9.4369589962243		
246	16074	1497258928	0.23950441919192	0.11067708333333	9.4595170454545	9.4642521515074		
247	16074	1497258929	0.20838647959184	0.09538424744898	9.4302853954082	9.4338448369745		
248	16074	1497258930	0.19578598484848	0.098682133838384	9.4172190656566	9.4208930879691		
249	16074	1497258931	0.17453125	0.0828515625	9.4223828125	9.4255957574051		
250	16074	1497258932	0.3053125	0.091484375	9.4229296875	9.4299412973758		
251	16074	1497258933	0.5046875	0.1119140625	9.4166015625	9.432348791299		
252	16074	1497258934	0.6040234375	0.104609375	9.425703125	9.446241671182		
253	16074	1497258935	0.599296875	0.0887109375	9.410390625	9.4302591983265		
254	16074	1497258936	0.6334375	0.0748046875	9.414765625	9.4366783367267		
255	16074	1497258937	0.65964330808081	0.096669823232323	9.4398279671717	9.4637165447266		
256	16074	1497258938	0.88151041666667	0.10894097222222	9.4175741792929	9.4604795720075		
257	16074	1497258939	1.0375	0.1076953125	9.39515625	9.4535395130804		
258	16074	1497258940	1.0767440025253	0.077099116161616	9.410827020202	9.4731007423352		
259	16074	1497258941	0.9426171875	0.0724609375	9.4321875	9.4811891815871		
260	16074	1497258942	0.96212121212121	0.061671401515152	9.4345801767677	9.4844187799485		
261	16074	1497258943	1.2297265625	0.068984375	9.4114453125	9.4919688856653		
262	16074	1497258944	1.5135546875	0.0850390625	9.38390625	9.5063029750579		
263	16074	1497258945	1.576507260101	0.087002840909091	9.3747238005051	9.5070543819469		
264	16074	1497258946	1.5541745580808	0.078637941919192	9.3675031565657	9.4963594332783		
265	16074	1497258947	1.2941919191919	0.086016414141414	9.3957149621212	9.4944678087728		
266	16074	1497258948	1.3419140625	0.1202734375	9.392109375	9.5111709685857		
267	16074	1497258949	0.34243463010204	0.10578762755102	9.4719387755102	9.4811520489618	s	s
268	16074	1497258950	0.3830859375	0.20703125	9.47390625	9.4883424058925		
269	16074	1497258951	0.44574652777778	0.1707702020202	9.4587673611111	9.4727333794446		
270	16074	1497258952	0.43670280612245	0.13771524234694	9.4660794005102	9.4785353794754		
271	16074	1497258953	0.40947863520408	0.090959821428571	9.4765625	9.486251113928		
272	16074	1497258954	0.39420230263158	0.071751644736842	9.4743832236842	9.4829278100603		
273	16074	1497258955	0.40380366161616	0.069483901515152	9.4690261994949	9.4779341576123		
274	16074	1497258956	0.40510574494949	0.068300189393939	9.473327020202	9.4822804640535		
275	16074	1497258957	0.40206755050505	0.069681186868687	9.4756944444444	9.4845148902136		
276	16074	1497258958	0.39918718434343	0.067708333333333	9.4693813131313	9.4780888854046		
277	16074	1497258959	0.40101481958763	0.067775451030928	9.4692332474227	9.478006018491		
278	16074	1497258960	0.39610180412371	0.064956507731959	9.4703205541237	9.4788743186121		
279	16074	1497258961	0.39313616071429	0.062858737244898	9.4708625637755	9.4793240681667		
280	16074	1497258962	0.39533666237113	0.063788659793814	9.4674210695876	9.4759308777329		
281	16074	1497258963	0.39321588010204	0.068638392857143	9.4720982142857	9.4805904430503		
282	16074	1497258964	0.39379111842105	0.070518092105263	9.4727384868421	9.4812125640502		
283	16074	1497258965	0.38807397959184	0.068877551020408	9.4686702806122	9.4769430477728		
284	16074	1497258966	0.39269770408163	0.073222257653061	9.4672751913265	9.4757710538698		
285	16074	1497258967	0.39533666237113	0.067976804123711	9.4587628865979	9.4673389467606		
286	16074	1497258968	0.3962109375	0.066015625	9.47171875	9.4802896466669		
287	16074	1497258969	0.4039381377551	0.063655931122449	9.4702248086735	9.4790856792162		
288	16074	1497258970	0.40597098214286	0.064094387755102	9.4703045280612	9.4792746877293		
289	16074	1497258971	0.40150669642857	0.07015306122449	9.4715401785714	9.4804178026918		
290	16074	1497258972	0.40509406887755	0.055365114795918	9.4735730229592	9.4824798032624		
291	16074	1497258973	0.4014175257732	0.063547036082474	9.4749919458763	9.4837305773851		
292	16074	1497258974	0.39660395408163	0.060267857142857	9.4692681760204	9.4777980198428		
293	16074	1497258975	0.406953125	0.115859375	9.4679296875	9.4824339516592	s	d
294	16074	1497258976	0.8886328125	0.191953125	9.4997265625	9.5494919601048		
295	16074	1497258977	1.2612847222222	0.13364109848485	9.4793639520202	9.5665135139634		
296	16074	1497258978	1.5568399234694	0.18650350765306	9.4841757015306	9.6166950264705		
297	16074	1497258979	1.5860953282828	0.25753630050505	9.4726957070707	9.6103767235785		
298	16074	1497258980	1.5332228535354	0.25895675505051	9.4787326388889	9.6059201687251		
299	16074	1497258981	1.5026436237374	0.24597537878788	9.4953835227273	9.6170560243122		
300	16074	1497258982	1.4410116792929	0.24763257575758	9.4841382575758	9.5968571527346		
301	16074	1497258983	1.2316015625	0.2191796875	9.49609375	9.5789067831477		
302	16074	1497258984	1.075078125	0.2244140625	9.490703125	9.5553943208216		
303	16074	1497258985	0.98330965909091	0.20655776515152	9.4959753787879	9.5497981008694		
304	16074	1497258986	0.89716198979592	0.18096301020408	9.4575095663265	9.5023966296649		
305	16074	1497258987	0.81999362244898	0.18686224489796	9.4142617984694	9.4529003156606		
306	16074	1497258988	0.74368686868687	0.17207228535354	9.3954387626263	9.4273173360745		
307	16074	1497258989	0.64626736111111	0.1556976010101	9.3847064393939	9.4092782431482		
308	16074	1497258990	0.54651988636364	0.15100220959596	9.3690419823232	9.3872994291746		
309	16074	1497258991	0.432421875	0.143203125	9.3746875	9.3866918163609		
310	16074	1497258992	0.290078125	0.15359375	9.505703125	9.5125939218807		
311	16074	1497258993	0.231171875	0.196328125	9.4766796875	9.4831935508455		
312	16074	1497258994	0.49578125	0.1769140625	9.4119921875	9.4373867427101		
313	16074	1497258995	0.68451052295918	0.12703284438776	9.4987244897959	9.5264579332931		
314	16074	1497258996	0.60278566919192	0.15202809343434	9.4933317550505	9.5158755210871		
315	16074	1497258997	0.55109375	0.2818359375	9.453203125	9.4765951171821		
316	16074	1497258998	0.7496875	0.5368359375	9.3988671875	9.4508644157224		
317	16074	1497258999	0.91425978535354	0.56703756313131	9.3715672348485	9.4364560618203		
318	16074	1497259000	0.9866015625	0.5854296875	9.508984375	9.5825616767859		
319	16074	1497259001	1.03640625	0.587578125	9.5768359375	9.6546312140833		
320	16074	1497259002	1.053984375	0.5512890625	9.591328125	9.6683788833537		
321	16074	1497259003	1.052265625	0.5219921875	9.5821484375	9.6580682065901		
322	16074	1497259004	0.8104296875	0.4273828125	9.6063671875	9.6558738875142		
323	16074	1497259005	0.7020202020202	0.4006470959596	9.6052714646465	9.6424632854566		
324	16074	1497259006	0.676796875	0.4075390625	9.6157421875	9.6503396008362		
325	16074	1497259007	0.6083203125	0.344453125	9.561640625	9.5890265512642		
326	16074	1497259008	0.563203125	0.329140625	9.4336328125	9.4578330286983		
327	16074	1497259009	0.56802398989899	0.27430555555556	9.4636205808081	9.4870768303448		
328	16074	1497259010	0.96267361111111	0.36430713383838	9.4237294823232	9.4858608623563		
329	16074	1497259011	1.14875	0.266328125	9.4340625	9.5122226402598		
330	16074	1497259012	1.1772806186869	0.1339172979798	9.4237294823232	9.4993036283729		
331	16074	1497259013	1.2045703125	0.0958203125	9.4228125	9.5009396779412		
332	16074	1497259014	1.28328125	0.1426953125	9.376484375	9.4659844215945		
333	16074	1497259015	1.3155381944444	0.068418560606061	9.4144176136364	9.5067903232532		
334	16074	1497259016	1.1214488636364	0.058948863636364	9.4260969065657	9.4952828187393		
335	16074	1497259017	1.090703125	0.099765625	9.4021484375	9.467458715659		
336	16074	1497259018	1.0651041666667	0.10286458333333	9.3403566919192	9.4028598629784		
337	16074	1497259019	1.0723828125	0.09078125	9.355390625	9.4177612940022		
338	16074	1497259020	1.188515625	0.0819921875	9.34828125	9.4249218812977		
339	16074	1497259021	1.3046875	0.088147095959596	9.3435921717172	9.4352404274059		
340	16074	1497259022	1.40484375	0.0879296875	9.384296875	9.4899993154535		
341	16074	1497259023	1.444140625	0.0842578125	9.39375	9.5051142941091		
342	16074	1497259024	1.4227825126263	0.14429450757576	9.3675426136364	9.4781949719391		
343	16074	1497259025	1.292734375	0.0956640625	9.4335546875	9.5239255253092		
344	16074	1497259026	1.339921875	0.105859375	9.3873828125	9.4839561713817		
345	16074	1497259027	1.19046875	0.066640625	9.4165234375	9.4936587929977		
346	16074	1497259028	1.140390625	0.0715234375	9.4103515625	9.4807510146375		
347	16074	1497259029	1.6369921875	0.0752734375	9.365390625	9.5085113855114		
348	16074	1497259030	1.6669034090909	0.07556029040404	9.3555082070707	9.503978128266		
349	16074	1497259031	2.220703125	0.0725390625	9.2796484375	9.5433713381614		
350	16074	1497259032	2.2170703125	0.1090234375	9.2625	9.5307147383102		
351	16074	1497259033	1.666015625	0.122578125	9.3363671875	9.4969638520357		
352	16074	1497259034	0.524296875	0.068984375	9.461640625	9.4773089522904		
353	16074	1497259035	0.59501262626263	0.16548295454545	9.446259469697	9.4704793995725	s	s
354	16074	1497259036	0.6324537627551	0.18016581632653	9.4446348852041	9.4711664864835		
355	16074	1497259037	0.6732421875	0.1938671875	9.4418359375	9.4692588661151		
356	16074	1497259038	0.6755078125	0.17734375	9.433515625	9.461091931614		
357	16074	1497259039	0.700859375	0.0909375	9.4515625	9.4784564138564		
358	16074	1497259040	0.74771148989899	0.076586174242424	9.4414457070707	9.4713951983372		
359	16074	1497259041	0.75418526785714	0.076211734693878	9.4435188137755	9.4739457919665		
360	16074	1497259042	0.766171875	0.0701171875	9.442109375	9.4734429828027		
361	16074	1497259043	0.77917220744681	0.06923204787234	9.4428607047872	9.4752368711356		
362	16074	1497259044	0.77790178571429	0.072225765306122	9.4424027423469	9.4747069463285		
363	16074	1497259045	0.77714445153061	0.066047512755102	9.4450334821429	9.4772208404704		
364	16074	1497259046	0.7424693943299	0.071440077319588	9.4393121778351	9.4688724973959		
365	16074	1497259047	0.71806539948454	0.076030927835052	9.4482119845361	9.4758239854307		
366	16074	1497259048	0.70942283163265	0.07063137755102	9.4524473852041	9.4793381399373		
367	16074	1497259049	0.70578457446809	0.066530917553191	9.4475565159574	9.4741583950432		
368	16074	1497259050	0.71264128989362	0.069855385638298	9.4480967420213	9.4752222413915		
369	16074	1497259051	0.7183912627551	0.067641900510204	9.4469068877551	9.4744651838371		
370	16074	1497259052	0.71110026041667	0.062215169270833	9.4431559244792	9.4701420143791		
371	16074	1497259053	0.67988679846939	0.070551658163265	9.4468271683673	9.4717252183589		
372	16074	1497259054	0.67839884020619	0.079252577319588	9.4447084407216	9.4694403484287		
373	16074	1497259055	0.66836332070707	0.078953598484848	9.450560290404	9.4745347746765		
374	16074	1497259056	0.65427673969072	0.065963273195876	9.450306056701	9.4731935064598		
375	16074	1497259057	0.4965625	0.1234765625	9.5153125	9.5354394783549	s	d
376	16074	1497259058	1.02609375	0.154375	9.49203125	9.555057357268		
377	16074	1497259059	1.450859375	0.0726171875	9.4678125	9.5797154820418		
378	16074	1497259060	1.380221619898	0.10024713010204	9.4923469387755	9.597700794744		
379	16074	1497259061	1.4454296875	0.1158203125	9.4730078125	9.5847896088562		
380	16074	1497259062	1.2241015625	0.16546875	9.489453125	9.5699665333077		
381	16074	1497259063	1.0874920280612	0.14369419642857	9.5029894770408	9.5666098983027		
382	16074	1497259064	1.0689315025253	0.15175189393939	9.5012626262626	9.5629502379793		
383	16074	1497259065	1.071796875	0.155546875	9.5009765625	9.5629123417588		
384	16074	1497259066	0.83426339285714	0.14883609693878	9.5051817602041	9.5439956243059		
385	16074	1497259067	0.78567442602041	0.17215401785714	9.524075255102	9.5608862563165		
386	16074	1497259068	0.75479220360825	0.17807667525773	9.4086662371134	9.4428423811832		
387	16074	1497259069	0.61738478535354	0.19941603535354	9.3914535984848	9.4153692551064		
388	16074	1497259070	0.69554924242424	0.11971275252525	9.3089883207071	9.3466514315673		
389	16074	1497259071	0.79419191919192	0.094381313131313	9.2974273989899	9.3351297525446		
390	16074	1497259072	1.111647002551	0.067083864795918	9.4436383928571	9.5113114299944		
391	16074	1497259073	1.1382421875	0.1240625	9.396328125	9.4678247637764		
392	16074	1497259074	1.153685290404	0.17203282828283	9.3937815656566	9.4675729135846		
393	16074	1497259075	1.1511205808081	0.25449810606061	9.374329229798	9.4503381117103		
394	16074	1497259076	1.190064709596	0.23153409090909	9.4020675505051	9.4812304645968		
395	16074	1497259077	1.25046875	0.2180859375	9.3832421875	9.4722704211172		
396	16074	1497259078	0.63999368686869	0.16998106060606	9.4461410984848	9.4736703455316		
397	16074	1497259079	0.9433203125	0.16234375	9.4339453125	9.4847740390893		
398	16074	1497259080	1.143984375	0.15265625	9.4005859375	9.4727465207257		
399	16074	1497259081	1.1692442602041	0.10909598214286	9.4414859693878	9.5151573497859		
400	16074	1497259082	1.4849728954082	0.09343112244898	9.4561543367347	9.5739021725632		
401	16074	1497259083	1.630625	0.097890625	9.448515625	9.5899850853823		
402	16074	1497259084	1.3083570075758	0.089409722222222	9.4880839646465	9.5798495665525		
403	16074	1497259085	1.2409375	0.0932421875	9.4516015625	9.5347603822074		
404	16074	1497259086	1.242421875	0.0851171875	9.4815234375	9.5638728005033		
405	16074	1497259087	1.1683984375	0.09234375	9.4818359375	9.5549297979295		
406	16074	1497259088	1.098515625	0.1060546875	9.454296875	9.5193632937662		
407	16074	1497259089	1.1391796875	0.088515625	9.399140625	9.4690003263309		
408	16074	1497259090	1.0155859375	0.10921875	9.4300390625	9.487632798291		
409	16074	1497259091	0.94326073232323	0.10550820707071	9.4084595959596	9.457287764303		
410	16074	1497259092	1.084990530303	0.092092803030303	9.4137863005051	9.4780444409794		
411	16074	1497259093	1.187265625	0.0463671875	9.409375	9.4844126183386		
412	16074	1497259094	1.24546875	0.0973828125	9.42109375	9.5042230755395		
413	16074	1497259095	1.1681281887755	0.083027742346939	9.4308035714286	9.5046964433987		
414	16074	1497259096	1.1685666454082	0.080197704081633	9.3967633928571	9.4701738172888		
415	16074	1497259097	1.3866015625	0.0443359375	9.3921875	9.4944374415822		
416	16074	1497259098	1.499140625	0.053828125	9.3683203125	9.4881575791648		
417	16074	1497259099	1.52890625	0.023046875	9.3864453125	9.5104019097745		
418	16074	1497259100	1.5810546875	0.0291015625	9.3687890625	9.5015051538679		
419	16074	1497259101	1.599921875	0.0428515625	9.3590625	9.4952726979706		
420	16074	1497259102	1.692890625	0.0397265625	9.35140625	9.5037112310655		
421	16074	1497259103	1.6997711489899	0.044152462121212	9.3531407828283	9.5068310599917		
422	16074	1497259104	1.7177635732323	0.053622159090909	9.3471827651515	9.5041416518966		
423	16074	1497259105	1.7360716540404	0.04296875	9.3517992424242	9.5128225345983		
424	16074	1497259106	1.56078125	0.0460546875	9.35265625	9.4874014846978		
425	16074	1497259107	1.1055078125	0.098828125	9.4000390625	9.5006014678611		
426	16074	1497259108	0.63612689393939	0.13316761363636	9.4446811868687	9.4704193103023	s	s
427	16074	1497259109	0.676328125	0.225078125	9.4269140625	9.4592761716567		
428	16074	1497259110	0.7248828125	0.1784765625	9.4396484375	9.4706765123289		
429	16074	1497259111	0.720078125	0.145859375	9.4501953125	9.480009934107		
430	16074	1497259112	0.68106849747475	0.17870107323232	9.4411300505051	9.4683221549382		
431	16074	1497259113	0.73066603535354	0.12914299242424	9.4352904040404	9.4650524730397		
432	16074	1497259114	0.69554924242424	0.11485953282828	9.4395912247475	9.4661844614209		
433	16074	1497259115	0.69958118556701	0.11650289948454	9.4441849226804	9.4708126346534		
434	16074	1497259116	0.69635953608247	0.11851643041237	9.4417284149485	9.468145329077		
435	16074	1497259117	0.69527264030612	0.11786511479592	9.4369419642857	9.4632818455381		
436	16074	1497259118	0.68789457070707	0.11367582070707	9.4445628156566	9.4702973654073		
437	16074	1497259119	0.69543207908163	0.10550860969388	9.4447544642857	9.4711853137281		
438	16074	1497259120	0.5240625	0.1018359375	9.4454296875	9.4633088442317		
439	16074	1497259121	0.30196126302083	0.0665283203125	9.4635823567708	9.4705215818038		
440	16074	1497259122	0.2710212628866	0.053519652061856	9.4687902706186	9.4728951246312		
441	16074	1497259123	0.27549130154639	0.055090206185567	9.4658505154639	9.4700710914129		
442	16074	1497259124	0.27627840909091	0.061395202020202	9.46484375	9.4691089284603		
443	16074	1497259125	0.31198182397959	0.06624681122449	9.4752072704082	9.4811188242232		
444	16074	1497259126	0.7158984375	0.54375	9.043359375	9.183283605003		
445	16074	1497259127	0.780703125	1.2045703125	9.676796875	9.8608318851518		
446	16074	1497259128	0.34132401315789	1.2955180921053	9.3491776315789	9.4455087556108		
447	16074	1497259129	0.33862058080808	1.2901278409091	9.287720959596	9.383037870178		
448	16074	1497259130	0.26380997474747	1.2956518308081	9.2948626893939	9.3893384169738		
449	16074	1497259131	0.44906092171717	1.3379892676768	9.3195233585859	9.4271870149379		
450	16074	1497259132	0.791484375	1.3589453125	9.3394921875	9.4722327503634		
451	16074	1497259133	0.99578125	1.3599609375	9.3246484375	9.4796937853936	s	d
452	16074	1497259134	0.98311237373737	1.3185369318182	9.3403566919192	9.4866681406251		
453	16074	1497259135	0.7907421875	1.3348828125	9.352734375	9.4817851417676		
454	16074	1497259136	0.60215435606061	1.2989267676768	9.321930239899	9.4324816372924		
455	16074	1497259137	0.49735637626263	1.3064236111111	9.3362136994949	9.4408949104095		
456	16074	1497259138	0.48054766414141	1.3058317550505	9.340790719697	9.4445209143153		
457	16074	1497259139	0.3803515625	1.299453125	9.335	9.4370499935143		
458	16074	1497259140	0.32299558080808	1.2851167929293	9.3286379419192	9.4230702422293		
459	16074	1497259141	0.41051136363636	1.2497238005051	9.3454071969697	9.4465683556433		
460	16074	1497259142	0.2926953125	1.1978515625	9.371171875	9.4539670193225		
461	16074	1497259143	0.23125	1.1462109375	9.3478125	9.4217397916455		
462	16074	1497259144	0.1641796875	1.087890625	9.3130078125	9.3786199979646		
463	16074	1497259145	0.1823046875	1.02796875	9.2289453125	9.288787035902		
464	16074	1497259146	0.241640625	1.0880859375	9.1973828125	9.2657847168828		
465	16074	1497259147	0.348125	1.0808984375	9.1732421875	9.2448317641135		
466	16074	1497259148	0.4931137242268	1.1167847938144	9.2881765463918	9.3696746015172		
467	16074	1497259149	0.64640625	1.1369140625	9.3131640625	9.4064888731358		
468	16074	1497259150	0.6995703125	1.1348828125	9.30640625	9.4024870198268		
469	16074	1497259151	0.72102200255102	1.1816804846939	9.3942920918367	9.4964945301409		
470	16074	1497259152	0.64712213010204	1.1549744897959	9.4237484056122	9.517862824412		
471	16074	1497259153	0.51830808080808	1.182922979798	9.4125631313131	9.5014271737465		
472	16074	1497259154	0.5690625	1.201171875	9.411171875	9.5053184825001		
473	16074	1497259155	0.597734375	1.1790234375	9.4003125	9.4937413582949		
474	16074	1497259156	0.51128472222222	1.1869476010101	9.3985953282828	9.4883758391548		
475	16074	1497259157	0.40187026515152	1.1836332070707	9.4268860479798	9.5106267223939		
476	16074	1497259158	0.37294823232323	1.1596038510101	9.2819996843434	9.3625364151783		
477	16074	1497259159	0.35	1.1817578125	9.3130859375	9.3954454602458		
478	16074	1497259160	0.351171875	1.2434375	9.2990625	9.3900718401416		
479	16074	1497259161	0.3108033459596	1.2259311868687	9.3484848484848	9.434453678611		
480	16074	1497259162	0.2666015625	1.2439453125	9.3223828125	9.4103597102072		
481	16074	1497259163	0.080546875	1.2528125	9.3515234375	9.4362537329945		
482	16074	1497259164	0.0689453125	1.2537890625	9.3340625	9.4188812180239		
483	16074	1497259165	0.0640234375	1.2555078125	9.3284375	9.4131990143156		
484	16074	1497259166	0.2851953125	1.224453125	9.2916015625	9.3785822370863		
485	16074	1497259167	0.3765234375	1.21921875	9.3091796875	9.3979096868812		
486	16074	1497259168	0.65171875	1.22109375	9.292265625	9.3964960406942		
487	16074	1497259169	0.64504419191919	1.196930239899	9.2935606060606	9.3955614305666		
488	16074	1497259170	0.6064453125	1.248125	9.293515625	9.3998370004494		
489	16074	1497259171	0.4659485479798	1.2243529040404	9.3032670454545	9.3963069818089		
490	16074	1497259172	0.3693359375	1.2453515625	9.32171875	9.4132674543556		
491	16074	1497259173	0.3975390625	1.2391796875	9.2987890625	9.3912270478242		
492	16074	1497259174	0.5276171875	1.2225	9.297109375	9.3947251265776		
493	16074	1497259175	0.6471875	1.2280859375	9.285078125	9.3906347270836		
494	16074	1497259176	0.611015625	1.1616796875	9.3203125	9.4153688342601		
495	16074	1497259177	0.58084753787879	1.0796638257576	9.3587436868687	9.4415002242637		
496	16074	1497259178	0.5257421875	1.1121875	9.3553125	9.4383207082688		
497	16074	1497259179	0.515390625	1.088515625	9.3741015625	9.4543711189854		
498	16074	1497259180	0.48828125	1.07859375	9.3409765625	9.4213928310345		
499	16074	1497259181	0.48529177295918	1.0675223214286	9.3095902423469	9.3886656473735		
500	16074	1497259182	0.50375	1.06359375	9.350234375	9.4313618430164		
501	16074	1497259183	0.5552734375	1.1259375	9.3112890625	9.4031717569233		
502	16074	1497259184	0.6744140625	1.0857421875	9.283046875	9.3770817449743		
503	16074	1497259185	0.708125	1.1183984375	9.32484375	9.4239223752211		
504	16074	1497259186	0.7239453125	1.147890625	9.316640625	9.4244926082086		
505	16074	1497259187	0.8480078125	1.188671875	9.3163671875	9.4398567917507		
506	16074	1497259188	0.87984375	1.27625	9.35671875	9.4922416664127		
507	16074	1497259189	0.7676171875	1.23265625	9.3478125	9.4654407495763		
508	16074	1497259190	0.801953125	1.2801171875	9.272109375	9.3988258580091		
509	16074	1497259191	0.84171715561224	1.2269610969388	9.2973931760204	9.4182540761141		
510	16074	1497259192	0.8677398989899	1.2780539772727	9.252288510101	9.3818824488718		
511	16074	1497259193	0.91545758928571	1.2306281887755	9.302096619898	9.4295397839207		
512	16074	1497259194	0.977578125	1.2000390625	9.3091796875	9.4406503573826		
513	16074	1497259195	0.9752734375	1.3263671875	9.3387109375	9.4858652060703		
514	16074	1497259196	0.9378515625	1.400625	9.27921875	9.4339978459663		
515	16074	1497259197	0.87265625	1.2859375	9.3232421875	9.4554988823127		
516	16074	1497259198	0.88651945153061	1.1905293367347	9.3251753826531	9.4450650708382		
517	16074	1497259199	0.9176171875	1.2413671875	9.3038671875	9.4327938044536		
518	16074	1497259200	0.91469381313131	1.2125157828283	9.3342013888889	9.4587783472484		
519	16074	1497259201	0.9040234375	1.2095703125	9.3066015625	9.4299241788428		
520	16074	1497259202	0.920078125	1.1828515625	9.2637890625	9.3872533136675		
521	16074	1497259203	0.8955859375	1.1838671875	9.303203125	9.423334413218		
522	16074	1497259204	0.90238320707071	1.181029040404	9.2833017676768	9.4037515208412		
523	16074	1497259205	0.88490372474747	1.1931818181818	9.2999921085859	9.4202007645893		
524	16074	1497259206	0.901875	1.1890625	9.3125	9.4334334755132		
525	16074	1497259207	0.738359375	1.190546875	9.27875	9.391524704703		
526	16074	1497259208	0.8162890625	1.1934765625	9.3042578125	9.426529944654		
527	16074	1497259209	0.14948453608247	1.1998630798969	9.3216011597938	9.3998863819182		
528	16074	1497259210	0.1412109375	1.1993359375	9.320859375	9.3988154788497		
529	16074	1497259211	0.14207474226804	1.1960776417526	9.3236952319588	9.4011961683654		
530	16074	1497259212	0.13859215561224	1.1992586096939	9.3213488520408	9.3992285979858		
531	16074	1497259213	0.14050662878788	1.1990214646465	9.3266256313131	9.4044568072017	s	s
532	16074	1497259214	0.23625	1.1751171875	9.3151171875	9.3946090058066		
533	16074	1497259215	0.16466039540816	1.1727917729592	9.3352200255102	9.410605665093		
534	16074	1497259216	0.15931919642857	1.1811623086735	9.3185586734694	9.3946157836803		
535	16074	1497259217	0.1651953125	1.181875	9.3318359375	9.407885018513		
536	16074	1497259218	0.17	1.1806640625	9.32859375	9.4047705635837		
537	16074	1497259219	0.18770135309278	1.1759826030928	9.3240576675258	9.4010502209651		
538	16074	1497259220	0.1648046875	1.181328125	9.32453125	9.400557262237		
539	16074	1497259221	0.1651953125	1.179765625	9.3356640625	9.4113912786204		
540	16074	1497259222	0.16377160904255	1.1795628324468	9.3279172207447	9.4036488392942		
541	16074	1497259223	0.1581640625	1.1800390625	9.33015625	9.4058409664321		
542	16074	1497259224	0.13533775252525	1.2484217171717	9.3170375631313	9.4086295987434		
543	16074	1497259225	0.14626736111111	1.2521306818182	9.3211805555556	9.4062747650979		
544	16074	1497259226	0.143515625	1.2437109375	9.311875	9.3963340526098		
545	16074	1497259227	0.13221460459184	1.2491629464286	9.3106664540816	9.3950626298825		
546	16074	1497259228	0.1139453125	1.253359375	9.3174609375	9.4021421777128		
547	16074	1497259229	0.1326171875	1.2574609375	9.3151171875	9.4009569981479		
548	16074	1497259230	0.14703125	1.251953125	9.3141015625	9.3993408882176		
549	16074	1497259231	0.13813920454545	1.2559974747475	9.3171559343434	9.4024702391053		
550	16074	1497259232	0.133203125	1.2546875	9.3136328125	9.3987541603288		
551	16074	1497259233	0.13328598484848	1.2568260732323	9.3125	9.3979812740121		
552	16074	1497259234	0.13022161989796	1.2539461096939	9.3123804209184	9.3973544847578		
553	16074	1497259235	0.13064236111111	1.2536300505051	9.3135653409091	9.3984980597163		
554	16074	1497259236	0.11670918367347	1.2551419005102	9.3106265943878	9.3956394624827		
555	16074	1497259237	0.539609375	1.2619921875	9.3289453125	9.4307532386791	s	d
556	16074	1497259238	0.9428515625	1.259921875	9.353515625	9.4863999926219		
557	16074	1497259239	1.1439333545918	1.2641501913265	9.3616868622449	9.5186780187141		
558	16074	1497259240	1.08296875	1.2544140625	9.395546875	9.5443535551508		
559	16074	1497259241	1.0044921875	1.2368359375	9.3125390625	9.451404205247		
560	16074	1497259242	1.0037890625	1.252109375	9.3441015625	9.4831332622223		
561	16074	1497259243	0.932578125	1.2596484375	9.32703125	9.4608994416258		
562	16074	1497259244	0.87421875	1.2559375	9.3340234375	9.4616050363803		
563	16074	1497259245	0.834765625	1.2545703125	9.3298828125	9.4531262533342		
564	16074	1497259246	0.7432421875	1.258125	9.3282421875	9.4461487491302		
565	16074	1497259247	0.6148828125	1.2696484375	9.338515625	9.4478348850955		
566	16074	1497259248	0.40747316919192	1.2082149621212	9.2554056186869	9.3478533694915		
567	16074	1497259249	0.6361328125	1.2703515625	9.259765625	9.3868912441982		
568	16074	1497259250	0.90226403061224	1.2869897959184	9.2958386479592	9.4343091053771		
569	16074	1497259251	0.93521148989899	1.2641256313131	9.2823942550505	9.4169787483632		
570	16074	1497259252	0.9524075255102	1.2882254464286	9.2755899234694	9.4140649387245		
571	16074	1497259253	0.9620703125	1.28671875	9.2391015625	9.3797965912005		
572	16074	1497259254	0.9533203125	1.292421875	9.2746875	9.4138216434648		
573	16074	1497259255	0.9373046875	1.2601953125	9.2876953125	9.420325701652		
574	16074	1497259256	0.94444444444444	1.2735953282828	9.2848800505051	9.4199824638363		
575	16074	1497259257	0.3821484375	1.2744140625	9.299140625	9.397565039263		
576	16074	1497259258	0.24296875	1.27125	9.297890625	9.3882768556008		
577	16074	1497259259	0.2188671875	1.244140625	9.3051953125	9.3913345200246		
578	16074	1497259260	0.25036243556701	1.2660277061856	9.2957474226804	9.3859849151405		
579	16074	1497259261	0.20837279040404	1.2637310606061	9.3497474747475	9.4378234360782		
580	16074	1497259262	0.17870107323232	1.2761600378788	9.3284011994949	9.4181062699324		
581	16074	1497259263	0.1966015625	1.270078125	9.294609375	9.3841392007919		
582	16074	1497259264	0.215390625	1.267109375	9.2987890625	9.3882164263118		
583	16074	1497259265	0.21843112244898	1.2715242346939	9.2945232780612	9.3850169752853		
584	16074	1497259266	0.13786300505051	1.2680713383838	9.3125	9.400634138399		
585	16074	1497259267	0.175	1.2615625	9.3215234375	9.4102473957927		
586	16074	1497259268	0.3408203125	1.27578125	9.2908203125	9.3856943291761		
587	16074	1497259269	0.3604296875	1.2692578125	9.2554296875	9.3534959653174		
588	16074	1497259270	0.3879296875	1.2535546875	9.2833203125	9.3788000902367		
589	16074	1497259271	0.2198046875	1.2634375	9.2709765625	9.361964779293		
590	16074	1497259272	0.15194917929293	1.3965830176768	9.2518150252525	9.3603711404731		
591	16074	1497259273	0.12069917929293	1.5956439393939	9.2889441287879	9.428131360908		
592	16074	1497259274	0.1412109375	1.73984375	9.2661328125	9.4308174455545		
593	16074	1497259275	0.13604797979798	1.7078993055556	9.2221827651515	9.381889482452		
594	16074	1497259276	0.0866015625	1.7448828125	9.2353125	9.4001867413511		
595	16074	1497259277	0.080886994949495	1.7406486742424	9.234375	9.3980722635505		
596	16074	1497259278	0.0707421875	1.75015625	9.2258203125	9.3917319544425		
597	16074	1497259279	0.125	1.7158203125	9.15421875	9.3162035999834		
598	16074	1497259280	0.15094866071429	1.7728794642857	9.1794483418367	9.3512537665249		
599	16074	1497259281	0.14823820153061	1.5825494260204	9.2152423469388	9.3523105240076		
600	16074	1497259282	0.1815625	1.3734375	9.266875	9.3713438893839		
601	16074	1497259283	0.16929768041237	1.2946601159794	9.2816929768041	9.3739303471207		
602	16074	1497259284	0.168203125	1.2533984375	9.241796875	9.3292185837556		
603	16074	1497259285	0.12689393939394	1.2533143939394	9.2928109217172	9.3797235657854		
604	16074	1497259286	0.201484375	1.2697265625	9.2780078125	9.3681439995665		
605	16074	1497259287	0.4984765625	1.250546875	9.281171875	9.3799117814149		
606	16074	1497259288	0.63500478316327	1.2621572066327	9.3140146683673	9.4233269804498		
607	16074	1497259289	0.68016098484848	1.2528803661616	9.3269807449495	9.4383091297864		
608	16074	1497259290	0.7377734375	1.2558203125	9.328203125	9.4439837042148		
609	16074	1497259291	0.55984375	1.2589453125	9.26515625	9.3710421572079		
610	16074	1497259292	0.32488952020202	1.2958096590909	9.2642440025253	9.3645359645946		
611	16074	1497259293	0.7671484375	1.2795703125	9.256640625	9.3788442777654		
612	16074	1497259294	0.83850220959596	1.2675189393939	9.2455018939394	9.3735859115548		
613	16074	1497259295	0.62974330357143	1.2853954081633	9.2717633928571	9.3828950522911		
614	16074	1497259296	0.77479272959184	1.2871890943878	9.2424665178571	9.366938196782		
615	16074	1497259297	0.76475694444444	1.2828282828283	9.2661773989899	9.3865137001999		
616	16074	1497259298	0.70864898989899	1.2813683712121	9.2547348484848	9.3767639998255		
617	16074	1497259299	0.54146938131313	1.2656644570707	9.2487768308081	9.35357877596		
618	16074	1497259300	0.2899609375	1.2779296875	9.2841015625	9.3781517087124		
619	16074	1497259301	0.22458964646465	1.2677951388889	9.2718986742424	9.3617714949173		
620	16074	1497259302	0.26223169191919	1.2773832070707	9.3114346590909	9.4038131604602		
621	16074	1497259303	0.2348046875	1.2741796875	9.2906640625	9.3811263321493		
622	16074	1497259304	0.24214804292929	1.2942708333333	9.2699652777778	9.3634454978152		
623	16074	1497259305	0.2477509469697	1.280303030303	9.2752130681818	9.3667491135569		
624	16074	1497259306	0.26081123737374	1.2909169823232	9.2748974116162	9.3686889150363		
625	16074	1497259307	0.26640625	1.2688671875	9.2751953125	9.3658946860996		
626	16074	1497259308	0.1756640625	1.2695703125	9.2742578125	9.3629816270419		
627	16074	1497259309	0.15309343434343	1.2531960227273	9.2789220328283	9.3654357704949		
628	16074	1497259310	0.1476171875	1.255625	9.2684765625	9.3554188219131		
629	16074	1497259311	0.087200126262626	1.252288510101	9.287444760101	9.3722968021774		
630	16074	1497259312	0.063683712121212	1.2486979166667	9.2964015151515	9.3805619607958		
631	16074	1497259313	0.116953125	1.24703125	9.242109375	9.327764407274		
632	16074	1497259314	0.17578125	1.1478456439394	9.3095012626263	9.3838464925681		
633	16074	1497259315	0.19357638888889	0.99392361111111	9.3337279040404	9.3899575282664		
634	16074	1497259316	0.2103515625	0.872578125	9.378671875	9.4239163602438		
635	16074	1497259317	0.20387468434343	0.86675347222222	9.393189709596	9.4379258699143		
636	16074	1497259318	0.17875	0.86203125	9.3606640625	9.4026923557388		
637	16074	1497259319	0.180234375	0.871875	9.3917578125	9.4345826335783		
638	16074	1497259320	0.29604640151515	0.89875315656566	9.3715277777778	9.4249631447474		
639	16074	1497259321	0.18375	0.9107421875	9.33	9.3766891298185		
640	16074	1497259322	0.13308869949495	0.90522411616162	9.3661616161616	9.4114138348786		
641	16074	1497259323	0.13109375	0.9241796875	9.3519140625	9.3998340447012		
642	16074	1497259324	0.12121212121212	0.9235321969697	9.3657670454545	9.412989506028		
643	16074	1497259325	0.09765625	0.91484375	9.37875	9.4242119093631		
644	16074	1497259326	0.090390625	0.89734375	9.37546875	9.4198361270254		
645	16074	1497259327	0.1239453125	0.93421875	9.4027734375	9.4509872867215		
646	16074	1497259328	0.087421875	1.0628515625	9.342109375	9.4034585352576		
647	16074	1497259329	0.092890625	1.2411328125	9.3041796875	9.3883762924193		
648	16074	1497259330	0.1780859375	1.278671875	9.294140625	9.3846247841279		
649	16074	1497259331	0.2176171875	1.2628125	9.2840234375	9.3732719531039		
650	16074	1497259332	0.2375	1.3012109375	9.29953125	9.3944286373921		
651	16074	1497259333	0.297109375	1.2916796875	9.298125	9.3937509137219		
652	16074	1497259334	0.4339453125	1.35125	9.265546875	9.3776185339785		
653	16074	1497259335	0.53803661616162	1.4004103535354	9.2731613005051	9.3982038319406		
654	16074	1497259336	0.45523756377551	1.4487802933673	9.2642299107143	9.393708070282		
655	16074	1497259337	0.49171875	1.4760546875	9.2672265625	9.4007483458657		
656	16074	1497259338	0.48234375	1.495859375	9.235546875	9.3772344191592		
657	16074	1497259339	0.7567077020202	1.5082465277778	9.2424242424242	9.4031169058459		
658	16074	1497259340	0.8144140625	1.5637109375	9.291328125	9.463928832546		
659	16074	1497259341	0.51909722222222	1.5886600378788	9.1265388257576	9.2879330997618		
660	16074	1497259342	0.241796875	1.4533984375	9.208046875	9.3308193249715		
661	16074	1497259343	0.2746484375	1.3589453125	9.230078125	9.3380639950172		
662	16074	1497259344	0.2137109375	1.2701171875	9.254765625	9.3471536825199		
663	16074	1497259345	0.2308984375	1.30734375	9.258828125	9.3559430388529		
664	16074	1497259346	0.2489453125	1.2447265625	9.285234375	9.3746074904566		
665	16074	1497259347	0.1601953125	1.279296875	9.2723828125	9.3634257276312		
666	16074	1497259348	0.16426179846939	1.2919323979592	9.2770647321429	9.369993922025		
667	16074	1497259349	0.33779198232323	1.2798295454545	9.299439709596	9.3967710619482		
668	16074	1497259350	0.84614158163265	1.2686941964286	9.2396763392857	9.368231195692		
669	16074	1497259351	1.0014204545455	1.2771464646465	9.2385969065657	9.3833383765911		
670	16074	1497259352	0.82828125	1.289375	9.240078125	9.3692178090246		
671	16074	1497259353	1.046171875	1.2826171875	9.25390625	9.4032488234663		
672	16074	1497259354	0.67080965909091	1.2803424873737	9.2518939393939	9.3660233433148		
673	16074	1497259355	0.63529829545455	1.2748974116162	9.2544981060606	9.3647319732317		
674	16074	1497259356	0.75733901515152	1.2744239267677	9.256865530303	9.3762252348879		
675	16074	1497259357	0.873046875	1.2649609375	9.246796875	9.3743864422951		
676	16074	1497259358	0.98035037878788	1.2693339646465	9.2535905934343	9.391831607344		
677	16074	1497259359	0.9555078125	1.264609375	9.2511328125	9.3861937106975		
678	16074	1497259360	1.123359375	1.290625	9.2373046875	9.3977536985248		
679	16074	1497259361	1.5269491792929	1.2980587121212	9.2225773358586	9.4387280569951		
680	16074	1497259362	0.9030859375	1.3109765625	9.2390234375	9.3867985598129		
681	16074	1497259363	0.30171875	1.341875	9.2815625	9.4015760813993	s	s
682	16074	1497259364	7.345	1.259765625	5.10515625	10.122322758565		
683	16074	1497259365	3.1502130681818	1.0136521464646	8.258759469697	9.2296352445021		
684	16074	1497259366	0.47140625	0.849453125	9.301484375	9.3704853986502		
685	16074	1497259367	0.51375	1.113671875	9.1665625	9.2713043276845		
686	16074	1497259368	1.1558554292929	1.3897964015152	9.2715041035354	9.4960777053674		
687	16074	1497259369	0.70805713383838	0.52635732323232	9.3499053030303	9.4095549460485		
688	16074	1497259370	1.7920703125	2.4481640625	8.79203125	9.4115068072369	s	l
689	16074	1497259371	1.0318359375	2.18046875	9.288828125	9.762467009642		
690	16074	1497259372	0.95171875	2.108046875	8.826015625	9.2683603806918		
691	16074	1497259373	1.685234375	1.335	8.9940234375	9.3756936085706		
